"hr","accel_x","accel_y","accel_z","skin_temp","ts"
37,0.09927735,-0.7525879,-0.6781372,339,"2023-01-15T00:00:00.223Z"
39,0.10262939,-0.76088136,-0.6688501,339,"2023-01-15T00:01:00.785Z"
41,0.10254639,-0.7608716,-0.66803956,338,"2023-01-15T00:02:01.347Z"
38,0.102810055,-0.7610986,-0.6676807,338,"2023-01-15T00:03:01.910Z"
40,0.1038501,-0.76138425,-0.6676294,337,"2023-01-15T00:04:02.457Z"
41,0.10378906,-0.76192385,-0.6670142,337,"2023-01-15T00:05:03.019Z"
41,0.103569336,-0.7618018,-0.6671655,337,"2023-01-15T00:06:03.582Z"
41,0.10317383,-0.76266843,-0.6660718,337,"2023-01-15T00:07:04.144Z"
39,0.10443115,-0.77893555,-0.64719236,336,"2023-01-15T00:08:04.706Z"
41,0.105493166,-0.7785498,-0.64734375,336,"2023-01-15T00:09:05.268Z"
39,0.105651855,-0.77861327,-0.6467041,336,"2023-01-15T00:10:05.830Z"
47,0.10424805,-0.7763672,-0.65006346,336,"2023-01-15T00:11:06.405Z"
44,0.10396972,-0.7773877,-0.6485718,336,"2023-01-15T00:12:06.967Z"
40,0.10456055,-0.7776904,-0.6488354,335,"2023-01-15T00:13:07.530Z"
45,0.10541016,-0.77805173,-0.6477368,335,"2023-01-15T00:14:08.092Z"
41,0.10501953,-0.7784741,-0.6473462,335,"2023-01-15T00:15:08.654Z"
37,0.03283203,-0.6197095,-0.80442137,335,"2023-01-15T00:16:09.216Z"
43,0.03378418,-0.61829346,-0.80515623,335,"2023-01-15T00:17:09.778Z"
46,0.030817872,-0.61617434,-0.8067456,335,"2023-01-15T00:18:10.341Z"
44,0.032692872,-0.61756104,-0.80596435,336,"2023-01-15T00:19:10.903Z"
48,0.034570314,-0.616145,-0.80666995,337,"2023-01-15T00:20:11.465Z"
53,0.03484619,-0.6160913,-0.8061084,337,"2023-01-15T00:21:12.027Z"
51,0.034003906,-0.61216795,-0.8092847,338,"2023-01-15T00:22:12.589Z"
44,0.034560546,-0.6133545,-0.8084302,338,"2023-01-15T00:23:13.152Z"
48,0.03401123,-0.6203003,-0.8032837,339,"2023-01-15T00:24:13.714Z"
45,0.034260254,-0.62168455,-0.80219483,339,"2023-01-15T00:25:14.276Z"
51,0.03468506,-0.62030274,-0.8028101,340,"2023-01-15T00:26:14.838Z"
47,0.034362793,-0.6212573,-0.80255127,340,"2023-01-15T00:27:15.401Z"
50,0.034921873,-0.6221216,-0.8019019,340,"2023-01-15T00:28:15.963Z"
56,0.6027173,-0.07223144,0.8082153,338,"2023-01-15T00:29:16.525Z"
43,0.60138917,-0.07717529,0.8095874,338,"2023-01-15T00:30:17.100Z"
40,0.60059816,-0.077692874,0.8098535,338,"2023-01-15T00:31:17.662Z"
42,0.6003784,-0.07798096,0.81026614,339,"2023-01-15T00:32:18.224Z"
41,0.60078615,-0.078117676,0.81048584,339,"2023-01-15T00:33:18.786Z"
44,0.60108644,-0.077285156,0.8103418,340,"2023-01-15T00:34:19.349Z"
41,0.60017824,-0.07915039,0.81063724,340,"2023-01-15T00:35:19.911Z"
44,0.5983887,-0.07992187,0.8115088,341,"2023-01-15T00:36:20.473Z"
45,0.5995728,-0.07852051,0.8113794,342,"2023-01-15T00:37:21.035Z"
39,0.6000049,-0.06403808,0.8128174,342,"2023-01-15T00:38:21.597Z"
43,0.5989819,-0.07779785,0.81210935,343,"2023-01-15T00:39:22.160Z"
36,0.5990259,-0.07116455,0.8124536,344,"2023-01-15T00:40:22.722Z"
39,0.5996924,-0.07123535,0.8121191,344,"2023-01-15T00:41:23.284Z"
37,0.5978589,-0.076123044,0.81264406,344,"2023-01-15T00:42:23.846Z"
40,0.5988086,-0.07285645,0.8124683,345,"2023-01-15T00:43:24.408Z"
45,0.59823245,-0.073696285,0.813313,345,"2023-01-15T00:44:24.971Z"
43,0.5988306,-0.07292969,0.8126611,346,"2023-01-15T00:45:25.533Z"
42,0.5981665,-0.07200684,0.8129126,346,"2023-01-15T00:46:26.095Z"
46,0.5979761,-0.07259522,0.81318605,346,"2023-01-15T00:47:26.657Z"
43,0.59897214,-0.07215088,0.813252,347,"2023-01-15T00:48:27.219Z"
45,0.59893554,-0.07222412,0.81263185,348,"2023-01-15T00:49:27.794Z"
40,-0.022426758,-0.9977954,-0.19159424,346,"2023-01-15T00:50:28.356Z"
40,-0.02215332,-0.9969092,-0.19462158,345,"2023-01-15T00:51:28.918Z"
43,-0.020930177,-0.9971582,-0.19644532,343,"2023-01-15T00:52:29.481Z"
41,-0.020820312,-0.9962573,-0.19857666,342,"2023-01-15T00:53:30.043Z"
44,-0.020441895,-0.99626464,-0.19962646,340,"2023-01-15T00:54:30.605Z"
42,-0.019960938,-0.9959302,-0.20047364,339,"2023-01-15T00:55:31.167Z"
45,-0.019553222,-0.99574953,-0.20123047,338,"2023-01-15T00:56:31.729Z"
57,0.12659425,-1.0104126,0.040410157,339,"2023-01-15T00:57:32.292Z"
43,0.1293579,-1.0094141,0.036601562,338,"2023-01-15T00:58:32.854Z"
41,0.12993652,-1.0097973,0.033129882,337,"2023-01-15T00:59:33.416Z"
40,0.13000977,-1.0093628,0.030842286,336,"2023-01-15T01:00:33.978Z"
43,0.14035401,-1.0080103,0.036779784,335,"2023-01-15T01:01:34.541Z"
45,0.1406372,-1.008479,0.033518065,334,"2023-01-15T01:02:35.103Z"
40,0.14358154,-1.006853,-0.053269044,332,"2023-01-15T01:03:35.665Z"
41,0.14377685,-1.0069971,-0.056071777,332,"2023-01-15T01:04:36.227Z"
42,0.14433105,-1.0062988,-0.05605469,331,"2023-01-15T01:05:36.789Z"
42,0.14397949,-1.006958,-0.057919923,331,"2023-01-15T01:06:37.352Z"
42,0.14604248,-1.0065088,-0.063466795,330,"2023-01-15T01:07:37.914Z"
40,0.1455249,-1.006377,-0.064660646,330,"2023-01-15T01:08:38.489Z"
37,0.15976806,-1.004165,-0.06253906,329,"2023-01-15T01:09:39.051Z"
38,0.1726709,-1.0034546,0.04970459,328,"2023-01-15T01:10:39.613Z"
41,0.17368652,-1.003308,0.047915038,328,"2023-01-15T01:11:40.175Z"
41,0.17393555,-1.0038159,0.04498047,327,"2023-01-15T01:12:40.738Z"
38,0.17254883,-1.0036768,0.041894533,327,"2023-01-15T01:13:41.300Z"
39,0.18215331,-1.0022753,0.041215822,326,"2023-01-15T01:14:41.862Z"
41,0.1819165,-1.0024267,0.04100586,326,"2023-01-15T01:15:42.424Z"
38,0.18192871,-1.0021069,0.037719727,326,"2023-01-15T01:16:42.986Z"
45,0.18355712,-1.0025073,0.034416504,326,"2023-01-15T01:17:43.549Z"
39,0.1790747,-1.0023608,0.024047852,325,"2023-01-15T01:18:44.111Z"
40,0.17900391,-1.0029444,0.024123535,325,"2023-01-15T01:19:44.673Z"
39,0.17908691,-1.0031494,0.022443848,325,"2023-01-15T01:20:45.235Z"
41,0.1792505,-1.0034009,0.022216797,325,"2023-01-15T01:21:45.798Z"
40,0.17860352,-1.0030713,0.022189941,325,"2023-01-15T01:22:46.360Z"
42,0.18555908,-1.0016503,0.019011231,324,"2023-01-15T01:23:46.922Z"
41,0.19551514,-1.0000976,0.028828125,324,"2023-01-15T01:24:47.484Z"
37,0.19559814,-1.000498,0.027363282,324,"2023-01-15T01:25:48.046Z"
37,0.195,-1.0004345,0.025373535,323,"2023-01-15T01:26:48.609Z"
39,0.18833984,-1.0015235,0.014829102,323,"2023-01-15T01:27:49.183Z"
40,-0.56135255,0.26374024,0.7562109,326,"2023-01-15T01:28:49.746Z"
39,-0.554353,0.26351562,0.7620825,327,"2023-01-15T01:29:50.308Z"
37,-0.55779785,0.26171386,0.76088136,328,"2023-01-15T01:30:50.870Z"
37,-0.5563989,0.2602832,0.7622217,329,"2023-01-15T01:31:51.432Z"
39,-0.5528125,0.2600122,0.765603,331,"2023-01-15T01:32:51.995Z"
37,-0.55551267,0.25901613,0.7639575,333,"2023-01-15T01:33:52.557Z"
40,-0.5811206,0.36227784,0.7002173,334,"2023-01-15T01:34:53.119Z"
36,-0.5802539,0.36072266,0.70221925,336,"2023-01-15T01:35:53.681Z"
40,-0.57976073,0.35903075,0.7025,337,"2023-01-15T01:36:54.243Z"
37,-0.58564943,0.29909912,0.7260132,339,"2023-01-15T01:37:54.806Z"
37,-0.5851831,0.29761964,0.72783446,339,"2023-01-15T01:38:55.368Z"
39,-0.58448,0.29600585,0.72887206,340,"2023-01-15T01:39:55.930Z"
36,-0.58779055,0.29466307,0.726145,341,"2023-01-15T01:40:56.492Z"
40,-0.5843457,0.2954712,0.72955567,342,"2023-01-15T01:41:57.054Z"
42,-0.58572996,0.2945581,0.72778565,342,"2023-01-15T01:42:57.617Z"
37,-0.58407956,0.29544434,0.72964114,343,"2023-01-15T01:43:58.179Z"
38,-0.5854053,0.2942212,0.7290356,344,"2023-01-15T01:44:58.741Z"
38,-0.5871802,0.29377443,0.7276294,344,"2023-01-15T01:45:59.303Z"
56,-0.3937036,0.02821045,0.90420413,345,"2023-01-15T01:46:59.878Z"
34,-0.32479492,0.025788574,0.93412596,344,"2023-01-15T01:48:00.440Z"
37,-0.30592528,0.026979981,0.9403833,344,"2023-01-15T01:49:01.002Z"
48,0.600918,0.46541014,0.6617236,344,"2023-01-15T01:50:01.565Z"
38,0.6029028,0.46711427,0.65793455,344,"2023-01-15T01:51:02.127Z"
45,0.5995361,0.4703369,0.6590796,344,"2023-01-15T01:52:02.689Z"
36,0.59669435,0.473479,0.6590747,344,"2023-01-15T01:53:03.251Z"
37,0.5956372,0.47427002,0.6596704,344,"2023-01-15T01:54:03.813Z"
40,0.6262744,0.2224292,0.7607153,344,"2023-01-15T01:55:04.376Z"
35,0.63793945,0.17348877,0.76542234,344,"2023-01-15T01:56:04.938Z"
36,0.6464844,0.12857667,0.7672388,344,"2023-01-15T01:57:05.500Z"
37,0.6485327,0.13360596,0.7645288,344,"2023-01-15T01:58:06.062Z"
38,0.6490015,0.13053711,0.76488525,344,"2023-01-15T01:59:06.625Z"
41,0.48784423,-0.5301709,0.6984619,344,"2023-01-15T02:00:07.187Z"
54,-0.3263965,-0.1998706,0.9138965,344,"2023-01-15T02:01:07.749Z"
37,-0.31747314,-0.18619385,0.91986084,345,"2023-01-15T02:02:08.311Z"
48,-0.31284425,-0.18473144,0.92133546,347,"2023-01-15T02:03:08.873Z"
44,-0.3150415,-0.18634766,0.92120117,347,"2023-01-15T02:04:09.436Z"
43,-0.29375732,0.037578125,0.94299805,349,"2023-01-15T02:05:09.998Z"
46,-0.29553956,0.03376709,0.9429077,350,"2023-01-15T02:06:10.568Z"
44,-0.29604247,0.029389648,0.9429663,351,"2023-01-15T02:07:11.135Z"
46,-0.3000366,0.035771485,0.9415649,351,"2023-01-15T02:08:11.697Z"
41,-0.30023682,0.034885254,0.9416284,351,"2023-01-15T02:09:12.259Z"
47,-0.30090332,0.033371583,0.9413281,352,"2023-01-15T02:10:12.821Z"
43,-0.2997217,0.03506592,0.94160646,352,"2023-01-15T02:11:13.383Z"
44,-0.2995825,0.028708495,0.94199216,352,"2023-01-15T02:12:13.946Z"
42,-0.3008667,0.027219238,0.9419873,352,"2023-01-15T02:13:14.508Z"
47,-0.3154541,0.0016015625,0.9375317,353,"2023-01-15T02:14:15.070Z"
43,-0.3165674,0.0010791016,0.9365576,353,"2023-01-15T02:15:15.632Z"
43,-0.31845704,-0.0013085938,0.9362866,353,"2023-01-15T02:16:16.194Z"
47,0.4065332,-0.2540747,0.8943506,353,"2023-01-15T02:17:16.757Z"
38,0.64665526,0.21508056,0.7460547,353,"2023-01-15T02:18:17.319Z"
41,0.6461304,0.21822266,0.7456616,353,"2023-01-15T02:19:17.881Z"
40,0.64514893,0.20785645,0.750022,353,"2023-01-15T02:20:18.443Z"
39,0.6453198,0.20719726,0.74936765,352,"2023-01-15T02:21:19.005Z"
42,0.646189,0.20808838,0.74851316,352,"2023-01-15T02:22:19.568Z"
40,0.64550537,0.20947266,0.74890625,351,"2023-01-15T02:23:20.130Z"
42,0.6458447,0.2090625,0.7488159,351,"2023-01-15T02:24:20.692Z"
38,0.6458887,0.20939453,0.74875,351,"2023-01-15T02:25:21.262Z"
40,0.6456519,0.20903565,0.74867433,351,"2023-01-15T02:26:21.829Z"
36,0.6451001,0.20964843,0.7495801,351,"2023-01-15T02:27:22.391Z"
41,0.6456201,0.21003906,0.7485278,350,"2023-01-15T02:28:22.953Z"
42,0.64583987,0.20913085,0.7489551,350,"2023-01-15T02:29:23.515Z"
37,0.6647998,0.13579834,0.7504419,350,"2023-01-15T02:30:24.078Z"
38,0.66397214,0.14214355,0.7502539,350,"2023-01-15T02:31:24.640Z"
38,0.6634717,0.14285156,0.7499512,350,"2023-01-15T02:32:25.202Z"
39,0.6623535,0.14559326,0.7504785,350,"2023-01-15T02:33:25.764Z"
38,0.6614673,0.14632812,0.7508667,350,"2023-01-15T02:34:26.326Z"
54,0.6682495,0.11061523,0.7522412,350,"2023-01-15T02:35:26.889Z"
36,0.6682568,0.11931396,0.7507373,350,"2023-01-15T02:36:27.451Z"
39,0.6673218,0.11937256,0.7513159,350,"2023-01-15T02:37:28.013Z"
41,0.66695315,0.119946286,0.75145507,350,"2023-01-15T02:38:28.575Z"
37,0.62520266,0.101071775,0.7870728,350,"2023-01-15T02:39:29.137Z"
41,0.6247363,0.10560059,0.78723145,350,"2023-01-15T02:40:29.700Z"
40,0.6250659,0.106489256,0.78669435,350,"2023-01-15T02:41:30.262Z"
37,0.65811276,0.096174315,0.7626416,350,"2023-01-15T02:42:30.824Z"
36,0.6570825,0.09739746,0.7635205,350,"2023-01-15T02:43:31.386Z"
40,0.65694094,0.11577149,0.7605811,351,"2023-01-15T02:44:31.957Z"
37,0.6618677,0.16803955,0.7463648,351,"2023-01-15T02:45:32.523Z"
40,0.6601856,0.16828126,0.74746096,351,"2023-01-15T02:46:33.085Z"
55,0.26107666,-0.97628903,0.13969971,350,"2023-01-15T02:47:33.648Z"
39,0.261084,-0.97600585,0.14177978,350,"2023-01-15T02:48:34.210Z"
40,0.26088867,-0.97572756,0.14145996,350,"2023-01-15T02:49:34.772Z"
40,0.2611035,-0.97608644,0.14130127,350,"2023-01-15T02:50:35.334Z"
38,0.2617456,-0.9757129,0.1416748,350,"2023-01-15T02:51:35.896Z"
41,0.26130617,-0.97592044,0.14202881,351,"2023-01-15T02:52:36.458Z"
39,0.2612207,-0.97628665,0.1413916,351,"2023-01-15T02:53:37.021Z"
37,0.26182374,-0.97620606,0.14166993,351,"2023-01-15T02:54:37.583Z"
42,0.2613965,-0.97592527,0.14163086,351,"2023-01-15T02:55:38.145Z"
39,0.26157472,-0.97601074,0.14109375,351,"2023-01-15T02:56:38.708Z"
38,0.26182616,-0.9760181,0.14114746,351,"2023-01-15T02:57:39.270Z"
39,0.2613916,-0.9760522,0.14052247,351,"2023-01-15T02:58:39.832Z"
38,0.26181397,-0.97615725,0.14169434,351,"2023-01-15T02:59:40.394Z"
41,0.2614551,-0.9758105,0.14087403,351,"2023-01-15T03:00:40.956Z"
38,0.26178467,-0.9761157,0.14122802,351,"2023-01-15T03:01:41.518Z"
39,0.26205567,-0.9760376,0.1414331,351,"2023-01-15T03:02:42.081Z"
45,0.2666382,-0.97448,0.14067139,352,"2023-01-15T03:03:42.651Z"
41,0.26601318,-0.97500974,0.14136963,352,"2023-01-15T03:04:43.218Z"
41,0.26498535,-0.97492677,0.14197753,352,"2023-01-15T03:05:43.780Z"
41,0.2643701,-0.974707,0.1422998,352,"2023-01-15T03:06:44.342Z"
39,0.2642212,-0.9747925,0.1425708,351,"2023-01-15T03:07:44.904Z"
41,0.26397705,-0.9754297,0.14276123,351,"2023-01-15T03:08:45.466Z"
39,0.26386476,-0.9749927,0.14293458,351,"2023-01-15T03:09:46.029Z"
39,0.2637427,-0.9745044,0.14334229,352,"2023-01-15T03:10:46.591Z"
42,0.26293212,-0.974646,0.14436035,351,"2023-01-15T03:11:47.153Z"
41,0.26287353,-0.9750586,0.14434081,352,"2023-01-15T03:12:47.715Z"
40,0.2635376,-0.9751904,0.14405517,352,"2023-01-15T03:13:48.277Z"
40,0.26296142,-0.97541016,0.14477783,352,"2023-01-15T03:14:48.840Z"
39,0.26290527,-0.9753125,0.1449707,352,"2023-01-15T03:15:49.402Z"
56,-0.69937986,0.4326929,0.53171384,352,"2023-01-15T03:16:49.964Z"
36,-0.6785547,0.43567383,0.55470216,351,"2023-01-15T03:17:50.526Z"
38,-0.6778589,0.43634766,0.55415285,351,"2023-01-15T03:18:51.088Z"
37,-0.6716602,0.44720703,0.5548877,350,"2023-01-15T03:19:51.651Z"
38,-0.67272705,0.44603026,0.55395263,350,"2023-01-15T03:20:52.213Z"
44,-0.67022705,0.44815186,0.5550684,350,"2023-01-15T03:21:52.775Z"
37,-0.67222166,0.44763917,0.55302,349,"2023-01-15T03:22:53.345Z"
40,-0.6715967,0.4481128,0.5539746,349,"2023-01-15T03:23:53.912Z"
35,-0.6721924,0.44824952,0.55169433,349,"2023-01-15T03:24:54.474Z"
49,0.61685544,0.09755371,0.7857129,349,"2023-01-15T03:25:55.036Z"
34,0.69105226,0.23536132,0.70072997,349,"2023-01-15T03:26:55.598Z"
42,0.6913599,0.2331836,0.7016138,349,"2023-01-15T03:27:56.161Z"
42,0.68989503,0.23027344,0.70289797,349,"2023-01-15T03:28:56.723Z"
39,0.6898535,0.23053955,0.7035962,349,"2023-01-15T03:29:57.285Z"
38,0.6909131,0.22932373,0.7031128,349,"2023-01-15T03:30:57.847Z"
40,0.6870337,0.23638427,0.70830077,350,"2023-01-15T03:31:58.409Z"
35,0.68819094,0.2452295,0.6996045,350,"2023-01-15T03:32:58.972Z"
36,0.6882788,0.23713379,0.7030762,350,"2023-01-15T03:33:59.534Z"
37,0.6881177,0.23753174,0.703042,350,"2023-01-15T03:35:00.096Z"
43,0.25963134,-0.98649657,0.024013672,350,"2023-01-15T03:36:00.658Z"
40,0.26084474,-0.98625976,0.019470215,350,"2023-01-15T03:37:01.220Z"
39,0.26051027,-0.98626953,0.019379882,350,"2023-01-15T03:38:01.783Z"
41,0.2607788,-0.9863477,0.01802246,350,"2023-01-15T03:39:02.345Z"
40,0.49439698,0.6059766,0.62733155,349,"2023-01-15T03:40:02.907Z"
44,0.49201173,0.5929712,0.6424707,349,"2023-01-15T03:41:03.469Z"
52,0.6369946,-0.64252687,0.473938,349,"2023-01-15T03:42:04.040Z"
46,0.6355542,-0.64448977,0.47318116,350,"2023-01-15T03:43:04.606Z"
48,0.6347461,-0.64567137,0.47219726,350,"2023-01-15T03:44:05.168Z"
48,0.6338452,-0.6469653,0.4717163,349,"2023-01-15T03:45:05.730Z"
42,0.63403565,-0.64758056,0.47212645,349,"2023-01-15T03:46:06.293Z"
47,0.6339209,-0.6477661,0.47060546,349,"2023-01-15T03:47:06.855Z"
41,0.63302976,-0.647019,0.47239745,349,"2023-01-15T03:48:07.417Z"
42,0.63291746,-0.64861083,0.4707178,349,"2023-01-15T03:49:07.979Z"
41,0.63220704,-0.6485937,0.4716748,348,"2023-01-15T03:50:08.542Z"
43,0.63214844,-0.64931154,0.47048828,348,"2023-01-15T03:51:09.104Z"
45,0.6317651,-0.6492285,0.47181398,348,"2023-01-15T03:52:09.666Z"
43,0.63104737,-0.6499487,0.471875,348,"2023-01-15T03:53:10.228Z"
37,0.6301245,-0.6519653,0.470979,348,"2023-01-15T03:54:10.791Z"
44,0.62991214,-0.6521704,0.47064453,348,"2023-01-15T03:55:11.353Z"
69,0.6571875,-0.22480713,0.74126464,348,"2023-01-15T03:56:11.915Z"
40,0.6527881,-0.21308593,0.7469678,347,"2023-01-15T03:57:12.477Z"
41,0.6505835,-0.21216796,0.7503613,347,"2023-01-15T03:58:13.039Z"
40,0.64871335,-0.21245362,0.7517847,347,"2023-01-15T03:59:13.601Z"
38,0.64411134,-0.16473144,0.76617676,347,"2023-01-15T04:00:14.164Z"
40,0.64336914,-0.1641919,0.7669531,347,"2023-01-15T04:01:14.734Z"
45,0.64318115,-0.16399658,0.7668774,348,"2023-01-15T04:02:15.301Z"
39,0.6434155,-0.1624414,0.76701415,347,"2023-01-15T04:03:15.863Z"
39,0.64155275,-0.16188964,0.76910645,347,"2023-01-15T04:04:16.425Z"
38,0.16682129,0.7573169,0.6234497,347,"2023-01-15T04:05:16.987Z"
42,0.16839111,0.7631567,0.6157422,346,"2023-01-15T04:06:17.549Z"
39,0.164292,0.76260257,0.6172681,346,"2023-01-15T04:07:18.112Z"
40,0.16333741,0.7657959,0.61310303,346,"2023-01-15T04:08:18.674Z"
45,0.16320801,0.7777344,0.5979956,345,"2023-01-15T04:09:19.236Z"
46,0.16259521,0.7782788,0.5977246,346,"2023-01-15T04:10:19.797Z"
44,0.16273193,0.780498,0.59406006,346,"2023-01-15T04:11:20.360Z"
37,0.16187744,0.78245115,0.59250975,346,"2023-01-15T04:12:20.923Z"
42,0.16294922,0.7832495,0.5907715,346,"2023-01-15T04:13:21.485Z"
47,0.16177979,0.7838696,0.5912134,346,"2023-01-15T04:14:22.047Z"
53,-0.7570874,-0.3730371,0.50585693,346,"2023-01-15T04:15:22.609Z"
38,-0.7172583,-0.39581054,0.55011964,345,"2023-01-15T04:16:23.171Z"
46,-0.7181787,-0.39864257,0.5484448,346,"2023-01-15T04:17:23.734Z"
40,-0.7176807,-0.39999023,0.54800534,347,"2023-01-15T04:18:24.296Z"
37,-0.7200903,-0.4015747,0.5436084,347,"2023-01-15T04:19:24.858Z"
47,-0.7167163,-0.40085205,0.54759765,348,"2023-01-15T04:20:25.419Z"
43,-0.71612793,-0.40093505,0.54832274,349,"2023-01-15T04:21:25.983Z"
43,-0.71720946,-0.40369385,0.546521,348,"2023-01-15T04:22:26.545Z"
42,-0.7192334,-0.4048657,0.5430371,348,"2023-01-15T04:23:27.107Z"
42,-0.71610105,-0.40438232,0.5465625,348,"2023-01-15T04:24:27.669Z"
47,-0.7177002,-0.404812,0.54442626,348,"2023-01-15T04:25:28.232Z"
46,-0.71604735,-0.40524414,0.5461548,348,"2023-01-15T04:26:28.794Z"
37,-0.71732664,-0.40567872,0.54316163,348,"2023-01-15T04:27:29.356Z"
40,-0.715481,-0.40677246,0.5457788,348,"2023-01-15T04:28:29.918Z"
48,-0.7192871,-0.40781984,0.5397754,348,"2023-01-15T04:29:30.480Z"
47,-0.72031003,-0.40815917,0.53804934,349,"2023-01-15T04:30:31.042Z"
46,-0.716228,-0.4082715,0.54400146,349,"2023-01-15T04:31:31.605Z"
40,-0.71913576,-0.40816405,0.5406372,349,"2023-01-15T04:32:32.167Z"
44,-0.71572757,-0.40812987,0.5443677,349,"2023-01-15T04:33:32.729Z"
41,-0.7140283,-0.40866455,0.54700196,349,"2023-01-15T04:34:33.292Z"
40,-0.71424073,-0.40833986,0.54620606,349,"2023-01-15T04:35:33.854Z"
43,-0.71385497,-0.40862548,0.54687744,349,"2023-01-15T04:36:34.416Z"
38,-0.71433103,-0.4080005,0.5459375,349,"2023-01-15T04:37:34.978Z"
41,-0.7122168,-0.40898192,0.5474219,349,"2023-01-15T04:38:35.540Z"
37,-0.712749,-0.4087744,0.5474292,349,"2023-01-15T04:39:36.103Z"
44,-0.71571046,-0.4085132,0.5428369,349,"2023-01-15T04:40:36.677Z"
43,-0.7144629,-0.4101001,0.54526854,349,"2023-01-15T04:41:37.240Z"
52,0.65890867,0.25386718,0.72293943,350,"2023-01-15T04:42:37.802Z"
37,0.6598315,0.25061524,0.7229443,350,"2023-01-15T04:43:38.364Z"
39,0.65838134,0.24599609,0.72626954,350,"2023-01-15T04:44:38.926Z"
42,0.6588794,0.24620849,0.7259619,350,"2023-01-15T04:45:39.488Z"
39,0.6583374,0.24916992,0.72503906,350,"2023-01-15T04:46:40.051Z"
61,-0.51991457,-0.7323999,0.43528077,350,"2023-01-15T04:47:40.613Z"
40,-0.5138623,-0.7372363,0.43435058,350,"2023-01-15T04:48:41.175Z"
41,-0.5103784,-0.7387891,0.43572754,350,"2023-01-15T04:49:41.737Z"
36,-0.50819093,-0.72929686,0.4534717,350,"2023-01-15T04:50:42.300Z"
37,-0.5068945,-0.730708,0.453916,350,"2023-01-15T04:51:42.862Z"
36,-0.50353026,-0.7293262,0.4590796,350,"2023-01-15T04:52:43.424Z"
39,-0.5029883,-0.7301831,0.4587378,350,"2023-01-15T04:53:43.986Z"
41,-0.5027588,-0.73109865,0.45796385,350,"2023-01-15T04:54:44.548Z"
37,-0.5029468,-0.7321069,0.45534423,350,"2023-01-15T04:55:45.110Z"
39,-0.5005469,-0.72996336,0.46204102,350,"2023-01-15T04:56:45.672Z"
37,-0.5000439,-0.73067385,0.46104735,350,"2023-01-15T04:57:46.235Z"
36,-0.498833,-0.73074704,0.46139893,350,"2023-01-15T04:58:46.797Z"
38,-0.50094485,-0.73306155,0.4558252,350,"2023-01-15T04:59:47.372Z"
42,-0.66057616,0.6934326,0.21343261,351,"2023-01-15T05:00:47.934Z"
39,-0.63449216,0.6788428,0.3127905,351,"2023-01-15T05:01:48.496Z"
37,-0.63571286,0.67703855,0.31385985,352,"2023-01-15T05:02:49.058Z"
37,-0.637124,0.67548096,0.3145874,352,"2023-01-15T05:03:49.620Z"
38,-0.6332373,0.6779956,0.3191406,352,"2023-01-15T05:04:50.183Z"
40,0.016784668,-0.9964331,-0.20091309,348,"2023-01-15T05:05:50.745Z"
39,0.01616455,-0.9957617,-0.20545898,344,"2023-01-15T05:06:51.307Z"
40,0.014633789,-0.99497557,-0.20735596,342,"2023-01-15T05:07:51.869Z"
44,0.0092944335,-0.9979785,-0.19204101,342,"2023-01-15T05:08:52.431Z"
37,0.008591308,-0.9956567,-0.20631592,340,"2023-01-15T05:09:52.994Z"
81,-0.788313,0.6106128,0.09041504,345,"2023-01-15T05:10:53.556Z"
91,-0.572395,0.7830078,0.12577392,342,"2023-01-15T05:11:54.118Z"
81,-0.65384275,0.7661084,-0.027565919,338,"2023-01-15T05:12:54.680Z"
73,-0.41402587,0.87816894,-0.20075196,335,"2023-01-15T05:13:55.242Z"
76,-0.004301758,0.99161863,-0.09582275,332,"2023-01-15T05:14:55.805Z"
66,-0.0045996094,0.9884937,-0.12769775,329,"2023-01-15T05:15:56.367Z"
83,0.09998535,-0.982832,-0.24963868,325,"2023-01-15T05:16:56.929Z"
41,0.09571777,-0.9829395,-0.2502661,317,"2023-01-15T05:17:57.491Z"
41,0.08867676,-1.0139892,-0.011428223,317,"2023-01-15T05:18:58.053Z"
41,0.08458252,-1.0139892,-0.011254882,319,"2023-01-15T05:19:58.616Z"
40,0.084631346,-1.0140649,-0.012097168,321,"2023-01-15T05:20:59.178Z"
41,0.08407715,-1.0140942,-0.009406738,322,"2023-01-15T05:21:59.740Z"
40,0.08344483,-1.0137671,-0.009611816,324,"2023-01-15T05:23:00.302Z"
75,-0.32298338,0.89806396,-0.04913574,331,"2023-01-15T05:24:00.868Z"
73,-0.7292187,0.6487158,0.09727051,328,"2023-01-15T05:25:01.427Z"
79,0.03801758,-0.19463623,0.8609766,326,"2023-01-15T05:26:01.989Z"
41,-0.6014404,-0.038518067,0.7739331,325,"2023-01-15T05:27:02.552Z"
37,-0.59803224,-0.035512697,0.7770996,325,"2023-01-15T05:28:03.114Z"
39,-0.59981936,-0.040847167,0.77506346,328,"2023-01-15T05:29:03.676Z"
38,-0.60035646,-0.041870117,0.7753027,330,"2023-01-15T05:30:04.238Z"
38,-0.6033789,-0.03619873,0.7739844,333,"2023-01-15T05:31:04.800Z"
40,-0.60420656,-0.04491455,0.7729858,335,"2023-01-15T05:32:05.363Z"
39,-0.60328126,-0.04479492,0.77407956,337,"2023-01-15T05:33:05.925Z"
38,-0.60448974,-0.044035643,0.7730127,338,"2023-01-15T05:34:06.487Z"
41,-0.6036255,-0.044624023,0.7739746,340,"2023-01-15T05:35:07.049Z"
37,-0.60217285,-0.04956543,0.776438,342,"2023-01-15T05:36:07.611Z"
37,-0.60051024,-0.050827637,0.7767041,343,"2023-01-15T05:37:08.174Z"
37,-0.59474367,-0.082128905,0.7786108,344,"2023-01-15T05:38:08.736Z"
39,-0.59126955,-0.122363284,0.7776953,345,"2023-01-15T05:39:09.298Z"
36,-0.59052736,-0.11990234,0.77861816,346,"2023-01-15T05:40:09.860Z"
36,-0.5902759,-0.11891113,0.7783911,346,"2023-01-15T05:41:10.422Z"
36,-0.590835,-0.11788818,0.7786304,347,"2023-01-15T05:42:10.970Z"
41,-0.590459,-0.118054196,0.77871096,348,"2023-01-15T05:43:11.532Z"
38,-0.5962988,-0.11369873,0.77499753,348,"2023-01-15T05:44:12.094Z"
37,-0.5956641,-0.11187256,0.77524656,349,"2023-01-15T05:45:12.656Z"
37,-0.5955469,-0.110368654,0.775874,349,"2023-01-15T05:46:13.219Z"
42,-0.5873999,0.63651854,0.45970702,349,"2023-01-15T05:47:13.781Z"
35,-0.5876294,0.6344678,0.4611499,349,"2023-01-15T05:48:14.343Z"
38,-0.5877295,0.6328564,0.46321046,349,"2023-01-15T05:49:14.905Z"
38,-0.5876709,0.63244873,0.46403807,348,"2023-01-15T05:50:15.467Z"
39,-0.5900562,0.6313013,0.4627173,348,"2023-01-15T05:51:16.030Z"
36,-0.5916309,0.6297314,0.4622168,348,"2023-01-15T05:52:16.592Z"
36,-0.5936792,0.62937987,0.4625049,348,"2023-01-15T05:53:17.154Z"
38,-0.5891528,0.62816894,0.46791258,348,"2023-01-15T05:54:17.716Z"
37,-0.5891333,0.6274243,0.46860352,348,"2023-01-15T05:55:18.278Z"
37,-0.59856445,0.6454053,0.43139648,348,"2023-01-15T05:56:18.841Z"
37,-0.60161376,0.642561,0.43071532,348,"2023-01-15T05:57:19.403Z"
39,-0.59784913,0.64388186,0.4350879,348,"2023-01-15T05:58:19.965Z"
38,-0.60152835,0.64197755,0.4323169,349,"2023-01-15T05:59:20.535Z"
43,-0.49470946,0.5331201,0.658125,349,"2023-01-15T06:00:21.102Z"
37,-0.4920874,0.53833497,0.65606934,347,"2023-01-15T06:01:21.664Z"
37,-0.4936499,0.5413037,0.6513843,346,"2023-01-15T06:02:22.226Z"
37,-0.49020752,0.54359376,0.6522339,344,"2023-01-15T06:03:22.788Z"
39,-0.49305665,0.5460376,0.6476294,343,"2023-01-15T06:04:23.351Z"
37,-0.49325195,0.54745364,0.64636964,342,"2023-01-15T06:05:23.913Z"
37,-0.49124512,0.5489917,0.64641356,341,"2023-01-15T06:06:24.475Z"
38,-0.48687255,0.55855227,0.6416724,340,"2023-01-15T06:07:25.037Z"
38,-0.48479736,0.559021,0.64229006,339,"2023-01-15T06:08:25.600Z"
44,-0.7175391,0.4326929,0.5047217,339,"2023-01-15T06:09:26.162Z"
35,-0.7104468,0.43382812,0.5144849,339,"2023-01-15T06:10:26.724Z"
38,-0.70748293,0.43135497,0.5212329,339,"2023-01-15T06:11:27.286Z"
42,-0.70830566,0.43116456,0.52005124,339,"2023-01-15T06:12:27.848Z"
38,-0.70794433,0.4321924,0.51975095,339,"2023-01-15T06:13:28.411Z"
39,-0.70867187,0.43246093,0.5181885,340,"2023-01-15T06:14:28.973Z"
38,-0.70768553,0.4321289,0.519873,340,"2023-01-15T06:15:29.535Z"
35,-0.62065184,0.21965088,0.72508055,340,"2023-01-15T06:16:30.097Z"
38,-0.61923826,0.21720947,0.7282935,342,"2023-01-15T06:17:30.659Z"
42,-0.5800708,-0.21518311,0.7561011,343,"2023-01-15T06:18:31.230Z"
39,-0.60689455,0.17962891,0.7487793,345,"2023-01-15T06:19:31.796Z"
41,-0.609585,0.17316407,0.7479663,345,"2023-01-15T06:20:32.359Z"
38,-0.60716796,0.17550293,0.74931395,346,"2023-01-15T06:21:32.921Z"
44,-0.60717285,0.17632568,0.7500122,346,"2023-01-15T06:22:33.483Z"
36,-0.69865966,-0.59483397,0.37751952,347,"2023-01-15T06:23:34.045Z"
42,-0.69666505,-0.5932397,0.3830005,347,"2023-01-15T06:24:34.607Z"
44,-0.69757813,-0.5945947,0.3814038,347,"2023-01-15T06:25:35.170Z"
53,-0.7109326,-0.5963745,0.3511426,347,"2023-01-15T06:26:35.732Z"
51,-0.82513183,-0.048100587,0.50717044,347,"2023-01-15T06:27:36.294Z"
44,-0.6952637,-0.028969727,0.6921509,348,"2023-01-15T06:28:36.856Z"
44,-0.68624514,0.01576416,0.70124024,348,"2023-01-15T06:29:37.418Z"
59,0.367312,0.14583497,0.922146,348,"2023-01-15T06:30:37.981Z"
39,-0.4188696,0.025927734,0.8923779,348,"2023-01-15T06:31:38.543Z"
43,-0.42662108,-0.0014013671,0.8893506,348,"2023-01-15T06:32:39.105Z"
40,-0.42762697,0.03515869,0.8870776,348,"2023-01-15T06:33:39.667Z"
44,-0.38810548,0.037233885,0.9058569,349,"2023-01-15T06:34:40.229Z"
41,-0.38570067,0.038830567,0.9070361,349,"2023-01-15T06:35:40.792Z"
44,-0.5652686,0.25765625,0.7522144,349,"2023-01-15T06:36:41.354Z"
36,-0.35852784,0.864541,0.30829835,348,"2023-01-15T06:37:41.924Z"
38,-0.35612306,0.8644922,0.31132326,347,"2023-01-15T06:38:42.491Z"
41,-0.35712647,0.8651929,0.30927247,346,"2023-01-15T06:39:43.053Z"
41,-0.35649413,0.8645581,0.31049806,344,"2023-01-15T06:40:43.615Z"
40,-0.35646483,0.8657129,0.30515626,342,"2023-01-15T06:41:44.177Z"
41,-0.35534912,0.8651245,0.308916,341,"2023-01-15T06:42:44.740Z"
45,-0.35594237,0.8656226,0.3083667,339,"2023-01-15T06:43:45.302Z"
37,-0.3545117,0.8663794,0.30683595,338,"2023-01-15T06:44:45.864Z"
37,-0.4556201,0.33864745,0.8013086,337,"2023-01-15T06:45:46.426Z"
74,-0.09453369,0.4480713,-0.90085936,335,"2023-01-15T06:46:46.989Z"
80,0.02659912,0.4158667,-0.90976804,333,"2023-01-15T06:47:47.551Z"
65,0.24394532,0.952583,-0.17679444,347,"2023-01-15T06:48:48.112Z"
67,-0.7682275,0.5671045,0.23960693,356,"2023-01-15T06:49:48.674Z"
66,0.7739868,0.527959,0.38026854,360,"2023-01-15T06:50:49.237Z"
47,0.05701416,0.77937746,-0.6382471,363,"2023-01-15T06:51:49.799Z"
49,0.014597168,0.8138379,-0.5944629,366,"2023-01-15T06:52:50.361Z"
78,0.5104785,0.8494043,0.15889649,370,"2023-01-15T06:53:50.923Z"
68,0.46784425,0.73605955,0.49002442,360,"2023-01-15T06:54:51.486Z"
73,0.42861328,0.68611574,-0.6015454,348,"2023-01-15T06:55:52.048Z"
69,0.30590576,0.95476806,0.010070801,342,"2023-01-15T06:56:52.610Z"
65,0.31164062,0.1008667,0.8892871,339,"2023-01-15T06:57:53.172Z"
63,0.7397363,0.64678955,0.21430176,335,"2023-01-15T06:58:53.735Z"
62,0.43709472,0.7764478,0.43190673,333,"2023-01-15T06:59:54.297Z"
63,0.25045654,0.7981177,0.52792966,331,"2023-01-15T07:00:54.859Z"
59,0.4472046,0.836167,0.3155249,330,"2023-01-15T07:01:55.421Z"
73,0.7504785,0.42537597,0.51573485,328,"2023-01-15T07:02:55.984Z"
69,0.40034667,0.8247168,0.4081323,327,"2023-01-15T07:03:56.546Z"
64,0.21252686,0.80156493,0.5059253,325,"2023-01-15T07:04:57.108Z"
78,0.14591552,0.4906128,0.8281836,324,"2023-01-15T07:05:57.670Z"
68,0.2021045,0.69272214,0.6397119,323,"2023-01-15T07:06:58.232Z"
79,0.3618457,0.8003101,0.4824927,322,"2023-01-15T07:07:58.795Z"
69,0.27707276,0.70985353,0.5109326,321,"2023-01-15T07:08:59.357Z"
73,0.73565185,0.66802245,0.19337891,320,"2023-01-15T07:09:59.919Z"
81,-0.34909424,0.467688,-0.815271,320,"2023-01-15T07:11:00.481Z"
80,0.18354736,0.76880616,-0.6196704,318,"2023-01-15T07:12:01.044Z"
50,0.24749511,0.7310742,-0.64611816,318,"2023-01-15T07:13:01.606Z"
47,0.035666503,0.8322656,-0.5566553,319,"2023-01-15T07:14:02.168Z"
48,0.036193848,0.72893065,-0.6896777,319,"2023-01-15T07:15:02.730Z"
50,0.055720214,0.68944824,-0.73003906,318,"2023-01-15T07:16:03.292Z"
51,0.03691406,0.6921777,-0.72741944,318,"2023-01-15T07:17:03.855Z"
57,0.035168458,0.7081836,-0.71166015,317,"2023-01-15T07:18:04.417Z"
54,0.048371583,0.68442625,-0.7343311,316,"2023-01-15T07:19:04.979Z"
50,0.055930175,0.68964356,-0.7296533,315,"2023-01-15T07:20:05.542Z"
56,0.06169922,0.698728,-0.71896726,313,"2023-01-15T07:21:06.104Z"
70,-0.12352539,0.6835474,-0.47367433,310,"2023-01-15T07:22:06.666Z"
78,-0.41498536,0.81514406,-0.3900464,320,"2023-01-15T07:23:07.228Z"
87,0.16828369,0.84654784,0.107072756,334,"2023-01-15T07:24:07.790Z"
70,0.16838866,0.6618506,0.7076318,344,"2023-01-15T07:25:08.352Z"
50,0.5212964,0.8144141,0.26031983,351,"2023-01-15T07:26:08.914Z"
47,0.18403564,0.65760255,0.7132275,353,"2023-01-15T07:27:09.476Z"
47,0.16107422,0.641355,0.7289331,358,"2023-01-15T07:28:10.038Z"
51,0.2136792,0.59517825,0.7597339,363,"2023-01-15T07:29:10.601Z"
52,0.20651367,0.62616456,0.75194335,350,"2023-01-15T07:30:11.164Z"
50,0.2218042,0.62236816,0.7498828,340,"2023-01-15T07:31:11.726Z"
52,0.2000293,0.59785646,0.7745996,334,"2023-01-15T07:32:12.288Z"
56,0.22569092,0.66466063,0.7097119,330,"2023-01-15T07:33:12.850Z"
59,0.21265137,0.5856958,0.7815088,327,"2023-01-15T07:34:13.412Z"
53,0.2098462,0.5976636,0.77089113,324,"2023-01-15T07:35:13.975Z"
59,0.20337403,0.5975928,0.7756519,323,"2023-01-15T07:36:14.537Z"
65,0.24841064,0.6127026,0.7481348,320,"2023-01-15T07:37:15.084Z"
58,0.22094238,0.6166455,0.7530444,319,"2023-01-15T07:38:15.646Z"
52,0.31039062,0.64926755,0.6938013,319,"2023-01-15T07:39:16.208Z"
72,0.26046386,0.63327146,0.72597414,318,"2023-01-15T07:40:16.771Z"
66,0.713208,-0.3604541,0.616355,316,"2023-01-15T07:41:17.333Z"
54,0.402771,0.90117186,0.17993653,315,"2023-01-15T07:42:17.895Z"
61,0.30853516,0.87471193,-0.357063,313,"2023-01-15T07:43:18.457Z"
56,-0.090461425,0.5467041,0.8178247,312,"2023-01-15T07:44:19.020Z"
55,-0.016867675,0.951521,0.2869287,311,"2023-01-15T07:45:19.582Z"
56,0.0046875,0.9754834,0.101003416,310,"2023-01-15T07:46:20.144Z"
69,-0.008588867,0.9596045,0.2562378,308,"2023-01-15T07:47:20.706Z"
65,0.0107397465,0.6565747,0.74326414,308,"2023-01-15T07:48:21.269Z"
58,0.038068846,0.96297365,0.24253418,307,"2023-01-15T07:49:21.831Z"
48,0.023181152,0.6659912,0.73388916,307,"2023-01-15T07:50:22.393Z"
63,0.033981934,0.6447485,0.7530713,307,"2023-01-15T07:51:22.955Z"
75,0.03778076,0.5728882,0.8076001,307,"2023-01-15T07:52:23.518Z"
64,0.059990235,0.56593263,0.81194824,307,"2023-01-15T07:53:24.080Z"
60,0.034016114,0.5855982,0.7987134,307,"2023-01-15T07:54:24.642Z"
55,0.006323242,0.6530249,0.74437255,307,"2023-01-15T07:55:25.204Z"
59,0.054211427,0.5136499,0.84781003,306,"2023-01-15T07:56:25.766Z"
55,0.028408203,0.6457764,0.7516553,306,"2023-01-15T07:57:26.329Z"
63,0.013784179,0.63404053,0.7625439,306,"2023-01-15T07:58:26.891Z"
52,0.027084962,0.61816406,0.7750024,306,"2023-01-15T07:59:27.453Z"
61,0.04625244,0.6282495,0.76562256,304,"2023-01-15T08:00:28.015Z"
53,0.05619873,0.6830542,0.71736574,304,"2023-01-15T08:01:28.578Z"
60,0.047158204,0.7468506,0.65134275,304,"2023-01-15T08:02:29.140Z"
61,0.7801953,0.6030737,0.22276856,304,"2023-01-15T08:03:29.702Z"
69,0.031489257,0.60255617,0.79647464,304,"2023-01-15T08:04:30.264Z"
65,0.03126709,0.66979736,0.7293213,304,"2023-01-15T08:05:30.827Z"
71,0.0564917,0.85451174,0.4862915,303,"2023-01-15T08:06:31.389Z"
58,0.033937987,0.9718359,0.21061768,302,"2023-01-15T08:07:31.951Z"
71,0.03880615,0.96196777,0.2550122,301,"2023-01-15T08:08:32.513Z"
48,0.03779541,0.6441138,0.7523291,302,"2023-01-15T08:09:33.076Z"
50,0.042097166,0.63242674,0.76235354,303,"2023-01-15T08:10:33.638Z"
50,0.059135742,0.7713745,0.6208643,303,"2023-01-15T08:11:34.199Z"
59,0.11897217,0.6491504,0.74208254,303,"2023-01-15T08:12:34.762Z"
60,0.042824708,0.6023413,0.78593993,303,"2023-01-15T08:13:35.324Z"
59,0.032924805,0.63291013,0.7622803,304,"2023-01-15T08:14:35.887Z"
65,0.031484377,0.65505373,0.7433008,303,"2023-01-15T08:15:36.449Z"
54,0.025048828,0.65906984,0.739624,303,"2023-01-15T08:16:37.011Z"
73,0.2843823,0.7312085,-0.55236083,302,"2023-01-15T08:17:37.573Z"
86,0.48433593,0.5452197,-0.70547605,301,"2023-01-15T08:18:38.136Z"
47,-0.11336426,0.8436108,-0.57138425,300,"2023-01-15T08:19:38.698Z"
70,0.04736084,0.99611086,-0.28201172,300,"2023-01-15T08:20:39.260Z"
68,0.14689942,0.8219678,-0.41737306,301,"2023-01-15T08:21:39.822Z"
57,-0.86953855,0.49368408,0.089030765,301,"2023-01-15T08:22:40.385Z"
77,-0.91330075,0.18859863,0.09087158,303,"2023-01-15T08:23:40.946Z"
78,-0.87860596,0.42898682,-0.24478516,324,"2023-01-15T08:24:41.509Z"
89,0.41412598,0.6788013,-0.30341554,332,"2023-01-15T08:25:42.071Z"
86,0.14126709,0.97184324,-0.16232666,337,"2023-01-15T08:26:42.633Z"
94,-0.84704345,0.4420459,0.2212915,342,"2023-01-15T08:27:43.195Z"
79,0.34655273,0.90861815,-0.23799072,347,"2023-01-15T08:28:43.757Z"
80,0.8688061,0.5058618,0.1177417,350,"2023-01-15T08:29:44.319Z"
83,0.68616945,0.7100659,-0.06703613,353,"2023-01-15T08:30:44.882Z"
69,-0.7766479,0.5983887,-0.1977124,342,"2023-01-15T08:31:45.444Z"
69,-0.04694336,0.6934741,-0.6818286,343,"2023-01-15T08:32:46.006Z"
68,-0.36855468,0.8521094,0.31421387,351,"2023-01-15T08:33:46.568Z"
73,-0.31196046,0.9256812,-0.01215332,358,"2023-01-15T08:34:47.130Z"
56,-0.85774904,0.41220704,0.20228516,350,"2023-01-15T08:35:47.677Z"
71,-0.91426516,0.00025878905,-0.36648682,349,"2023-01-15T08:36:48.239Z"
84,-0.60578614,0.5833447,-0.44646728,344,"2023-01-15T08:37:48.801Z"
76,-0.69087404,0.6611426,0.20852295,346,"2023-01-15T08:38:49.364Z"
85,0.6988452,0.07795654,0.6294165,343,"2023-01-15T08:39:49.926Z"
80,-0.74165285,0.6376245,-0.08207031,341,"2023-01-15T08:40:50.488Z"
87,-0.10874268,0.8007129,-0.57954836,332,"2023-01-15T08:41:51.051Z"
94,0.079404294,0.72196287,-0.7119458,323,"2023-01-15T08:42:51.613Z"
88,-0.5277124,0.77908206,-0.47413817,312,"2023-01-15T08:43:52.175Z"
138,-0.8920337,0.83951414,0.08980713,306,"2023-01-15T08:44:52.737Z"
144,-0.9911084,0.77078366,0.11119385,297,"2023-01-15T08:45:53.300Z"
144,-0.4783423,1.0598315,0.203562,287,"2023-01-15T08:46:53.862Z"
150,-1.0795801,0.6054028,0.097128905,280,"2023-01-15T08:47:54.409Z"
149,-1.2412329,0.5601074,0.0708667,274,"2023-01-15T08:48:54.971Z"
115,-0.015837403,0.8502295,-0.4999243,267,"2023-01-15T08:49:55.534Z"
96,-0.94342285,0.40673095,0.0827417,268,"2023-01-15T08:50:56.096Z"
95,-1.4560889,0.96780515,0.07492676,267,"2023-01-15T08:51:56.658Z"
140,-0.86726075,1.2262084,0.18372315,263,"2023-01-15T08:52:57.221Z"
141,-0.96293944,0.86898685,0.21190673,260,"2023-01-15T08:53:57.783Z"
137,-0.55444336,1.1677393,0.35669434,257,"2023-01-15T08:54:58.345Z"
152,-1.0304174,0.85004884,0.13813232,254,"2023-01-15T08:55:58.907Z"
153,-1.0895313,0.49485353,0.082744144,251,"2023-01-15T08:56:59.470Z"
116,-1.0204077,0.46970704,0.07577637,249,"2023-01-15T08:58:00.032Z"
105,-1.0045972,0.50070554,0.08068603,250,"2023-01-15T08:59:00.594Z"
112,-0.511582,1.1757398,0.22869629,251,"2023-01-15T09:00:01.157Z"
133,-0.60213625,1.1348901,0.2084497,248,"2023-01-15T09:01:01.719Z"
134,-1.1145532,1.1364478,0.25267822,245,"2023-01-15T09:02:02.281Z"
129,-0.4955078,1.1422534,0.32519776,242,"2023-01-15T09:03:02.844Z"
127,-1.1110523,1.0013452,0.164104,239,"2023-01-15T09:04:03.406Z"
145,-0.38362303,0.6232153,0.6028784,237,"2023-01-15T09:05:03.968Z"
109,0.21746582,0.90330076,0.3577417,237,"2023-01-15T09:06:04.531Z"
103,-0.9935791,0.5011768,0.11190186,240,"2023-01-15T09:07:05.093Z"
120,-0.48638672,1.0450244,0.17389405,241,"2023-01-15T09:08:05.655Z"
138,-0.8974097,1.2280762,0.11105713,237,"2023-01-15T09:09:06.217Z"
135,-0.87078613,1.0286328,0.103134766,233,"2023-01-15T09:10:06.780Z"
131,-0.5209375,0.9512744,0.15900391,229,"2023-01-15T09:11:07.342Z"
141,-0.8101978,1.2353882,0.12886962,227,"2023-01-15T09:12:07.904Z"
141,-0.9580591,0.43254882,0.113396,225,"2023-01-15T09:13:08.467Z"
120,0.31608155,0.9155078,-0.37047362,226,"2023-01-15T09:14:09.029Z"
100,-1.0293847,0.46664062,0.06199951,227,"2023-01-15T09:15:09.591Z"
133,-1.0876929,0.91511965,0.090498045,233,"2023-01-15T09:16:10.154Z"
165,-1.1005493,1.0385815,0.101437986,230,"2023-01-15T09:17:10.716Z"
160,-0.5109424,1.042439,0.28240722,227,"2023-01-15T09:18:11.278Z"
165,-1.1452197,0.7655981,-0.022470703,226,"2023-01-15T09:19:11.840Z"
157,-0.52822757,1.0868554,0.20973389,222,"2023-01-15T09:20:12.403Z"
147,-1.0435815,0.44401368,0.11091065,222,"2023-01-15T09:21:12.965Z"
131,-0.5553125,0.8284375,0.12515625,223,"2023-01-15T09:22:13.527Z"
103,-0.9796826,0.48015624,0.10040771,227,"2023-01-15T09:23:14.090Z"
135,-1.012959,1.0157031,0.14403808,231,"2023-01-15T09:24:14.652Z"
145,-1.0498291,0.880376,0.079426266,229,"2023-01-15T09:25:15.214Z"
159,-0.48953125,1.1359912,0.3311499,226,"2023-01-15T09:26:15.777Z"
162,-1.0604126,0.9960596,0.06505127,224,"2023-01-15T09:27:16.339Z"
172,-0.6065039,1.2647071,0.22880371,221,"2023-01-15T09:28:16.901Z"
149,-1.005061,0.45551515,0.08761719,221,"2023-01-15T09:29:17.464Z"
108,-0.64662355,0.6387158,0.40191406,224,"2023-01-15T09:30:18.026Z"
88,0.30419433,0.89401126,-0.4014917,227,"2023-01-15T09:31:18.588Z"
98,0.08538818,0.9481714,0.29269043,231,"2023-01-15T09:32:19.150Z"
91,-0.8457568,0.54685056,-0.007756348,235,"2023-01-15T09:33:19.713Z"
87,1.0181592,0.02883545,-0.10045166,225,"2023-01-15T09:34:20.260Z"
91,-0.3642627,0.8316138,0.28644043,232,"2023-01-15T09:35:20.822Z"
93,-0.85351807,0.5295923,-0.0059033204,232,"2023-01-15T09:36:21.370Z"
87,-0.8919458,0.46663818,0.08587891,229,"2023-01-15T09:37:21.932Z"
105,1.0162696,0.03230957,-0.09974121,224,"2023-01-15T09:38:22.479Z"
84,-0.8807153,0.48702392,0.07000977,227,"2023-01-15T09:39:23.042Z"
83,-0.7926099,0.6055957,0.10632324,228,"2023-01-15T09:40:23.604Z"
98,-0.8625488,0.48137695,0.05409912,247,"2023-01-15T09:41:24.166Z"
88,1.0192798,0.07714111,0.024353027,256,"2023-01-15T09:42:24.728Z"
121,-0.9295093,0.559751,0.045354005,262,"2023-01-15T09:43:25.290Z"
116,-0.9587622,0.55546385,0.027937012,269,"2023-01-15T09:44:25.853Z"
106,-0.908999,0.5427197,0.07170166,273,"2023-01-15T09:45:26.415Z"
105,-0.88947266,0.4858081,0.09036377,275,"2023-01-15T09:46:26.977Z"
108,-0.08409424,0.7887769,-0.34116456,272,"2023-01-15T09:47:27.539Z"
110,-0.183208,0.717959,-0.67995363,254,"2023-01-15T09:48:28.102Z"
115,-0.612334,-0.058308106,-0.7886597,249,"2023-01-15T09:49:28.664Z"
107,-0.13128418,0.7128711,-0.71040773,265,"2023-01-15T09:50:29.226Z"
92,-0.40544188,0.9037866,-0.2993164,273,"2023-01-15T09:51:29.788Z"
60,-0.37805176,0.91559815,-0.16103272,256,"2023-01-15T10:00:11.754Z"
88,-0.22268555,0.81200683,-0.52559817,267,"2023-01-15T10:01:12.286Z"
93,0.04192139,0.7180347,-0.73480225,298,"2023-01-15T10:02:12.848Z"
75,0.11384766,0.9664795,-0.01036377,317,"2023-01-15T10:03:13.411Z"
81,-0.21256347,0.89370847,-0.38421875,328,"2023-01-15T10:04:13.973Z"
83,-0.17946045,0.7226856,0.5731909,336,"2023-01-15T10:05:14.519Z"
82,-0.06458496,0.96186525,0.2110791,343,"2023-01-15T10:06:15.066Z"
76,0.037316896,0.95073974,0.16460693,349,"2023-01-15T10:07:15.628Z"
76,-0.32279786,0.772356,0.52980226,348,"2023-01-15T10:08:16.191Z"
73,-0.2957788,0.8800342,0.3455078,336,"2023-01-15T10:09:16.753Z"
78,-0.23762695,0.81188476,0.483501,332,"2023-01-15T10:10:17.315Z"
79,-0.02999756,0.8194263,0.45276368,329,"2023-01-15T10:11:17.877Z"
79,-0.10182373,0.91679686,-0.40295655,330,"2023-01-15T10:12:18.440Z"
79,-0.07583496,0.983623,0.11969482,329,"2023-01-15T10:13:19.002Z"
73,0.108688965,0.81987303,0.36362305,329,"2023-01-15T10:14:19.564Z"
75,-0.12758788,0.9622974,0.21876465,328,"2023-01-15T10:15:20.126Z"
77,-0.34689942,0.85989016,0.32581055,327,"2023-01-15T10:16:20.688Z"
80,0.05890625,0.5185718,0.797251,328,"2023-01-15T10:17:21.251Z"
76,-0.2753247,0.8973144,0.22706299,329,"2023-01-15T10:18:21.813Z"
72,0.09236816,0.8001392,-0.58695066,328,"2023-01-15T10:19:22.375Z"
84,0.5452661,0.6863769,0.15387696,330,"2023-01-15T10:20:22.938Z"
76,-0.020761719,0.9545825,-0.24663574,331,"2023-01-15T10:21:23.500Z"
74,-0.13907471,0.91587156,0.30946532,331,"2023-01-15T10:22:24.062Z"
77,-0.11505859,0.9226416,0.13228028,330,"2023-01-15T10:23:24.624Z"
76,-0.07883545,0.16931152,0.9660718,328,"2023-01-15T10:24:25.186Z"
72,-0.42286134,0.78358644,0.3693042,331,"2023-01-15T10:25:25.749Z"
79,0.08976074,0.91342527,-0.2636377,329,"2023-01-15T10:26:26.311Z"
84,-0.34121582,0.93762696,0.0029614258,330,"2023-01-15T10:27:26.873Z"
91,-0.18514404,0.7501221,0.55289793,331,"2023-01-15T10:28:27.435Z"
97,-0.2582715,0.50779295,0.7618164,331,"2023-01-15T10:29:27.997Z"
112,0.08991455,0.73971194,-0.6402417,331,"2023-01-15T10:30:28.560Z"
99,-0.18769044,0.66135985,0.64401364,331,"2023-01-15T10:31:29.122Z"
76,-0.0205542,0.44965577,0.8827002,332,"2023-01-15T10:32:29.684Z"
76,-0.022917481,0.88318115,-0.46341798,343,"2023-01-15T10:33:30.246Z"
81,-0.22522217,0.02171875,0.9359888,356,"2023-01-15T10:34:30.808Z"
73,-0.01494873,0.9383228,0.24942383,364,"2023-01-15T10:35:31.370Z"
77,-0.3855542,0.8611133,0.15386963,367,"2023-01-15T10:36:31.932Z"
76,-0.08310059,0.88719237,0.23066895,374,"2023-01-15T10:37:32.494Z"
73,-0.032478027,0.2626538,0.8639795,381,"2023-01-15T10:38:33.056Z"
70,-0.24011475,0.8499487,0.44917724,381,"2023-01-15T10:39:33.619Z"
80,-0.12101319,0.8548047,-0.4653125,385,"2023-01-15T10:40:34.181Z"
73,-0.46670166,0.8074194,-0.2693921,367,"2023-01-15T10:41:34.744Z"
70,-0.556084,0.80569094,-0.11834229,359,"2023-01-15T10:42:35.306Z"
72,-0.3288452,-0.06665039,0.9200146,354,"2023-01-15T10:43:35.868Z"
72,0.13412109,0.92726564,0.3013135,350,"2023-01-15T10:44:36.430Z"
72,0.29817382,0.7436963,0.4989917,349,"2023-01-15T10:45:36.992Z"
69,1.0001099,0.04020996,0.19970703,347,"2023-01-15T10:46:37.554Z"
70,-0.21902344,0.6333838,-0.75256836,344,"2023-01-15T10:47:38.117Z"
76,0.43867674,0.86416745,0.21462159,351,"2023-01-15T10:48:38.678Z"
66,0.32635254,0.8173608,0.45570555,362,"2023-01-15T10:49:39.240Z"
69,-0.034770507,0.96156496,0.22701415,368,"2023-01-15T10:50:39.802Z"
70,0.3296875,0.72567385,0.5885889,372,"2023-01-15T10:51:40.365Z"
74,0.7595703,0.6586084,0.07921875,375,"2023-01-15T10:52:40.927Z"
67,0.43421143,0.90145993,-0.06954834,377,"2023-01-15T10:53:41.489Z"
73,-0.06740234,0.86439943,0.48059815,380,"2023-01-15T10:54:42.051Z"
75,-0.08717773,0.8385327,0.51031005,376,"2023-01-15T10:55:42.613Z"
72,0.38301513,0.4349536,0.7754419,381,"2023-01-15T10:56:43.176Z"
74,-0.006689453,0.80328614,-0.6022241,384,"2023-01-15T10:57:43.738Z"
77,0.3843872,0.25202394,0.7549145,385,"2023-01-15T10:58:44.300Z"
80,-0.78202146,0.6236011,0.040129393,385,"2023-01-15T10:59:44.862Z"
91,-0.5758789,0.6786499,0.21909668,384,"2023-01-15T11:00:45.424Z"
75,-0.4122583,0.7658081,0.4124292,376,"2023-01-15T11:01:45.986Z"
87,-0.358501,0.7704004,0.4379785,381,"2023-01-15T11:02:46.548Z"
76,-0.42713624,0.7514795,-0.46171144,374,"2023-01-15T11:03:47.110Z"
77,0.12410889,0.82614255,-0.514812,371,"2023-01-15T11:04:47.673Z"
79,-0.29805908,1.0275024,0.0617334,368,"2023-01-15T11:05:48.235Z"
74,-0.017263183,0.46085206,-0.8871533,368,"2023-01-15T11:06:48.797Z"
85,-0.29872313,0.887915,-0.14661865,365,"2023-01-15T11:07:49.359Z"
79,-0.23917237,0.9418408,0.21750732,364,"2023-01-15T11:08:49.921Z"
71,-0.3781958,0.6833081,0.5924536,371,"2023-01-15T11:09:50.483Z"
85,-0.15452637,0.9319727,-0.02173584,364,"2023-01-15T11:10:51.046Z"
77,-0.10421143,0.63425046,0.5868555,362,"2023-01-15T11:11:51.608Z"
73,-0.88006836,0.5603296,0.06512451,360,"2023-01-15T11:12:52.170Z"
72,0.0011230469,1.0058643,-0.1427124,358,"2023-01-15T11:13:52.732Z"
79,-0.75101316,0.4285425,0.41469482,358,"2023-01-15T11:14:53.294Z"
77,-0.45105225,0.7628345,-0.26981202,356,"2023-01-15T11:15:53.856Z"
84,-0.51621825,0.7687256,0.21430176,356,"2023-01-15T11:16:54.403Z"
77,-0.3063501,0.40789795,-0.8833252,355,"2023-01-15T11:17:54.965Z"
82,-0.7343799,0.47101563,-0.425083,355,"2023-01-15T11:18:55.527Z"
78,-0.83819824,0.58201414,0.04661865,346,"2023-01-15T11:19:56.090Z"
70,-0.63016844,0.5292334,0.3726172,339,"2023-01-15T11:20:56.652Z"
68,-0.35145265,0.7379663,-0.5472681,335,"2023-01-15T11:21:57.215Z"
86,-0.42530763,0.88862306,-0.17643799,331,"2023-01-15T11:22:57.777Z"
117,-0.38312745,0.93588865,0.17073731,329,"2023-01-15T11:23:58.339Z"
88,-0.33805665,0.8801343,0.29278564,327,"2023-01-15T11:24:58.901Z"
76,-0.37208983,0.86859864,0.25298828,325,"2023-01-15T11:25:59.463Z"
77,0.94425535,0.24633789,0.24177001,324,"2023-01-15T11:27:00.026Z"
83,-0.34146973,0.88188475,0.2450708,324,"2023-01-15T11:28:00.588Z"
73,0.86927,0.50407714,0.03426758,323,"2023-01-15T11:29:01.150Z"
84,-0.20371826,0.77633786,-0.54521483,320,"2023-01-15T11:30:01.712Z"
100,-0.34433106,0.7060937,-0.51497316,318,"2023-01-15T11:31:02.275Z"
84,-0.6729419,0.61262697,0.35093263,317,"2023-01-15T11:32:02.837Z"
77,-0.41244873,0.8353711,0.2678296,316,"2023-01-15T11:33:03.399Z"
87,-0.9014917,0.41470703,0.102434084,312,"2023-01-15T11:34:03.961Z"
78,-0.29412842,0.8962109,0.30730224,309,"2023-01-15T11:35:04.523Z"
69,-0.085690916,0.6555542,-0.75379884,308,"2023-01-15T11:36:05.085Z"
72,-0.28276122,0.81061524,0.46105224,305,"2023-01-15T11:37:05.647Z"
84,-0.348667,0.7763086,0.49164551,302,"2023-01-15T11:38:06.210Z"
75,0.43486327,0.94920164,0.0018725586,301,"2023-01-15T11:39:06.772Z"
83,0.15962891,0.9485864,0.18990722,301,"2023-01-15T11:40:07.334Z"
71,-0.69675046,0.52205324,0.48608643,301,"2023-01-15T11:41:07.897Z"
71,-0.94088864,0.45029053,-0.0047338866,300,"2023-01-15T11:42:08.458Z"
76,0.705,0.42015624,0.58832276,299,"2023-01-15T11:43:09.021Z"
89,-0.74231935,0.6322168,0.2548071,298,"2023-01-15T11:44:09.584Z"
98,0.49254638,0.41585204,0.6479199,298,"2023-01-15T11:45:10.146Z"
106,-0.8689185,0.45817384,-0.016196288,295,"2023-01-15T11:46:10.708Z"
98,-0.6494629,0.6291797,-0.07306396,296,"2023-01-15T11:47:11.271Z"
97,-0.4563623,0.67714846,0.278667,291,"2023-01-15T11:48:11.833Z"
109,0.030151367,0.8301294,0.53600585,290,"2023-01-15T11:49:12.395Z"
113,-0.74323976,0.51810545,-0.4380298,294,"2023-01-15T11:50:12.957Z"
101,0.33299315,0.906958,0.25798583,292,"2023-01-15T11:51:13.519Z"
87,0.2339331,0.96414304,0.11506836,291,"2023-01-15T11:52:14.082Z"
60,0.32258302,0.82519776,-0.48315674,290,"2023-01-15T11:53:14.644Z"
59,0.294104,0.9583545,-0.006813965,289,"2023-01-15T11:54:15.206Z"
82,0.054555666,0.71764404,0.56323,288,"2023-01-15T11:55:15.769Z"
77,-0.75733155,0.5951099,0.2430127,287,"2023-01-15T11:56:16.331Z"
79,-0.09695557,0.95177734,-0.05718994,287,"2023-01-15T11:57:16.893Z"
91,-1.0388818,0.22990234,0.022058105,289,"2023-01-15T11:58:17.455Z"
81,-0.48971924,0.7593628,0.4393579,290,"2023-01-15T11:59:18.018Z"
79,-0.9744385,0.092285156,0.07039063,289,"2023-01-15T12:00:18.580Z"
98,-0.71335447,0.66378665,0.1849585,286,"2023-01-15T12:01:19.142Z"
110,-0.9157031,0.3345581,0.055478517,288,"2023-01-15T12:02:19.704Z"
112,-0.6039917,0.5658423,0.46686524,285,"2023-01-15T12:03:20.267Z"
92,-0.2264209,0.7683545,0.57250243,283,"2023-01-15T12:04:20.829Z"
108,-0.72478515,0.39003906,0.5084375,277,"2023-01-15T12:05:21.391Z"
86,-0.57412356,0.592771,-0.527146,279,"2023-01-15T12:06:21.953Z"
77,0.20134765,0.7313306,0.58528566,281,"2023-01-15T12:07:22.516Z"
82,0.7561304,-0.29686522,0.6109717,278,"2023-01-15T12:08:23.078Z"
77,-0.7732422,0.021660157,-0.628064,280,"2023-01-15T12:09:23.640Z"
79,-0.33256105,0.64062744,0.6567017,279,"2023-01-15T12:10:24.202Z"
77,-0.48019776,0.5664722,0.64493895,281,"2023-01-15T12:11:24.765Z"
88,-0.8172534,0.33369628,0.43685302,280,"2023-01-15T12:12:25.327Z"
71,-0.9063452,0.36298585,0.08257569,278,"2023-01-15T12:13:25.889Z"
57,-0.91144776,0.36101806,0.0422583,279,"2023-01-15T12:14:26.451Z"
70,-0.039404295,0.8530957,-0.5256494,277,"2023-01-15T12:15:27.014Z"
61,0.5003174,0.8140381,-0.0036743165,275,"2023-01-15T12:16:27.576Z"
65,-0.14980468,0.9759448,-0.11236572,272,"2023-01-15T12:17:28.138Z"
73,-0.9063574,0.3708008,0.060559083,274,"2023-01-15T12:18:28.700Z"
67,-0.32410645,0.90771484,0.23916015,269,"2023-01-15T12:19:29.263Z"
79,-0.6669653,0.27809814,0.6643335,269,"2023-01-15T12:20:29.825Z"
83,-0.49282226,0.22474365,0.80746824,270,"2023-01-15T12:21:30.387Z"
91,-0.48560303,0.5899414,0.6645532,266,"2023-01-15T12:22:30.950Z"
79,-0.69134766,0.150708,0.68965334,266,"2023-01-15T12:23:31.512Z"
84,-0.6573535,0.196604,0.6888086,267,"2023-01-15T12:24:32.074Z"
102,-0.6774609,0.2610034,0.65204835,267,"2023-01-15T12:25:32.636Z"
74,-0.6238672,0.26135254,0.6976416,269,"2023-01-15T12:26:33.199Z"
73,-0.6602417,0.17223145,0.6872363,270,"2023-01-15T12:27:33.761Z"
81,-0.29956788,0.812937,0.58319825,270,"2023-01-15T12:28:34.323Z"
79,-0.8483472,0.07258545,0.46419922,272,"2023-01-15T12:29:34.885Z"
68,-0.6715503,0.70534915,0.025693359,272,"2023-01-15T12:30:35.448Z"
78,-0.16941895,0.886521,0.40767577,272,"2023-01-15T12:31:36.010Z"
83,-0.1268164,0.9033716,-0.42520997,269,"2023-01-15T12:32:36.572Z"
83,-0.1968164,0.9408057,-0.026660156,269,"2023-01-15T12:33:37.135Z"
80,-0.26904297,0.96830076,0.25608155,269,"2023-01-15T12:34:37.697Z"
65,-0.34709227,0.87032473,0.273562,272,"2023-01-15T12:35:38.259Z"
53,-0.19960694,0.9537012,0.17489746,271,"2023-01-15T12:36:38.821Z"
59,0.8187549,-0.45577148,0.38353515,275,"2023-01-15T12:37:39.383Z"
72,0.30427977,0.95368654,-0.04572998,280,"2023-01-15T12:38:39.946Z"
71,-0.37831298,0.88536376,-0.24033204,280,"2023-01-15T12:39:40.508Z"
66,0.06085205,0.9809766,-0.14634033,285,"2023-01-15T12:40:41.070Z"
67,0.0297583,0.92401856,0.3802124,289,"2023-01-15T12:41:41.633Z"
71,-0.062824704,0.8374634,0.5256665,293,"2023-01-15T12:42:42.195Z"
69,0.9133472,0.4452124,0.02130127,299,"2023-01-15T12:43:42.757Z"
63,0.081318356,0.8959082,0.491897,302,"2023-01-15T12:44:43.319Z"
62,-0.02277588,0.93573487,0.33057863,305,"2023-01-15T12:45:43.882Z"
63,-0.115048826,0.86772215,0.46218506,306,"2023-01-15T12:46:44.444Z"
66,0.11785889,0.8042725,0.5580151,307,"2023-01-15T12:47:45.005Z"
74,-0.15251952,0.9217725,-0.34523192,309,"2023-01-15T12:48:45.568Z"
52,-0.1711206,0.9168408,-0.3455005,311,"2023-01-15T12:49:46.131Z"
50,-0.22857422,0.847207,-0.47204834,311,"2023-01-15T12:50:46.693Z"
55,-0.23354492,0.9059082,-0.34119874,311,"2023-01-15T12:51:47.255Z"
65,-0.36812988,0.85661376,-0.3444165,313,"2023-01-15T12:52:47.817Z"
48,-0.3858618,0.77523685,-0.48298585,312,"2023-01-15T12:53:48.379Z"
58,0.081445314,0.9437085,-0.1700293,314,"2023-01-15T12:54:48.942Z"
78,-0.85696775,0.45010498,0.18310791,313,"2023-01-15T12:55:49.504Z"
77,-0.5857544,0.7810449,-0.080131836,311,"2023-01-15T12:56:50.066Z"
79,0.44221678,0.79351807,-0.20581299,311,"2023-01-15T12:57:50.628Z"
86,-0.96088624,0.09277099,0.2397583,313,"2023-01-15T12:58:51.191Z"
87,0.37312013,0.9229614,0.098930664,313,"2023-01-15T12:59:51.753Z"
91,0.004838867,0.9529956,-0.3015625,311,"2023-01-15T13:00:52.315Z"
85,0.603667,0.104765624,0.7577295,311,"2023-01-15T13:01:52.877Z"
90,0.024226075,0.89241946,0.43171874,310,"2023-01-15T13:02:53.439Z"
98,-0.2136377,0.024431152,0.9659595,310,"2023-01-15T13:03:54.002Z"
105,-0.20394531,0.21779297,0.9366333,309,"2023-01-15T13:04:54.564Z"
86,0.2101538,0.9542212,-0.21682861,306,"2023-01-15T13:05:55.126Z"
87,0.12644775,0.921355,0.341416,305,"2023-01-15T13:06:55.688Z"
113,0.17488037,0.84124756,0.49040526,304,"2023-01-15T13:07:56.251Z"
106,0.57598144,0.49269044,0.66069824,303,"2023-01-15T13:08:56.813Z"
111,0.5555591,0.4209912,0.64816165,302,"2023-01-15T13:09:57.375Z"
101,0.4700464,0.8867871,-0.04154785,301,"2023-01-15T13:10:57.938Z"
52,0.2391162,0.90745604,0.33141357,299,"2023-01-15T13:11:58.500Z"
46,-0.06553711,0.9416992,-0.3287671,297,"2023-01-15T13:12:59.062Z"
71,0.026357422,0.87134033,0.37505126,292,"2023-01-15T13:13:59.624Z"
50,0.14147705,0.9378052,-0.25291017,292,"2023-01-15T13:15:00.187Z"
49,0.19195801,0.88277346,-0.44033203,290,"2023-01-15T13:16:00.749Z"
64,0.15097412,0.9835693,-0.093063965,288,"2023-01-15T13:17:01.311Z"
58,-0.24042724,0.8488794,-0.3122827,287,"2023-01-15T13:18:01.873Z"
69,-0.028823242,0.9944336,-0.17903809,286,"2023-01-15T13:19:02.435Z"
68,-0.19006348,0.9197168,0.31119874,284,"2023-01-15T13:20:02.998Z"
70,-0.2819116,1.0019214,-0.09137695,284,"2023-01-15T13:21:03.560Z"
76,-0.69773436,0.6811621,-0.06256348,283,"2023-01-15T13:22:04.122Z"
79,0.0016210937,0.9667163,-0.122617185,284,"2023-01-15T13:23:04.685Z"
86,-0.7516089,0.18515626,0.6560254,281,"2023-01-15T13:24:05.247Z"
81,-0.6805322,0.3978125,0.60564697,280,"2023-01-15T13:25:05.809Z"
80,-0.5692847,0.3673413,0.66448486,280,"2023-01-15T13:26:06.371Z"
81,-0.6106128,0.24847901,0.7192993,273,"2023-01-15T13:27:06.934Z"
71,-0.14270508,0.55146486,0.81714356,278,"2023-01-15T13:28:07.496Z"
78,-0.72021973,-0.005932617,0.6941724,276,"2023-01-15T13:29:08.058Z"
76,-0.6539624,0.15546143,0.69121337,276,"2023-01-15T13:30:08.620Z"
69,-0.72063476,0.09970703,0.65263915,275,"2023-01-15T13:31:09.183Z"
67,-0.842334,0.43215087,0.23735596,275,"2023-01-15T13:32:09.745Z"
76,0.39469728,0.6371997,0.6560034,274,"2023-01-15T13:33:10.307Z"
68,-0.6918604,0.25418457,0.6488892,273,"2023-01-15T13:34:10.869Z"
54,-0.39382324,-0.0057177735,0.9034277,271,"2023-01-15T13:35:11.432Z"
68,-0.6611548,0.20775634,0.73889893,275,"2023-01-15T13:36:11.994Z"
69,-0.65278566,0.38757813,0.6580542,275,"2023-01-15T13:37:12.556Z"
68,0.32670653,0.92804444,-0.1993628,276,"2023-01-15T13:38:13.118Z"
70,-0.27302492,0.27786866,0.9062964,276,"2023-01-15T13:39:13.681Z"
77,-0.60895264,0.19066894,0.71289796,276,"2023-01-15T13:40:14.243Z"
78,0.7313379,0.6127539,-0.030886231,277,"2023-01-15T13:41:14.805Z"
61,-0.1680542,0.66923094,0.7090015,280,"2023-01-15T13:42:15.367Z"
55,-0.581582,-0.21277589,0.76647705,276,"2023-01-15T13:43:15.930Z"
70,-0.65147215,0.45135498,0.49295166,279,"2023-01-15T13:44:16.492Z"
76,-0.7877539,0.31802246,0.5203833,280,"2023-01-15T13:45:17.054Z"
60,-0.9759082,0.039416503,0.08177734,283,"2023-01-15T13:46:17.616Z"
62,-0.7296875,0.5221411,0.42943847,283,"2023-01-15T13:47:18.179Z"
54,-0.6433838,0.7417456,-0.1254834,286,"2023-01-15T13:48:18.741Z"
56,-0.20553955,0.9271802,0.2794629,288,"2023-01-15T13:49:19.303Z"
66,-0.31088135,0.7150391,0.6819507,287,"2023-01-15T13:50:19.865Z"
60,-0.74324465,0.21017823,0.6162915,286,"2023-01-15T13:51:20.428Z"
66,-0.738772,-0.04894287,0.66980714,287,"2023-01-15T13:52:20.990Z"
73,-0.4143579,0.45497558,0.69218504,287,"2023-01-15T13:53:21.552Z"
70,-0.7697607,0.37993163,0.5442627,284,"2023-01-15T13:54:22.115Z"
76,-0.32666504,0.79792726,-0.46637452,284,"2023-01-15T13:55:22.677Z"
59,-0.5185913,0.74152833,0.38102296,282,"2023-01-15T13:56:23.239Z"
50,0.17495605,0.7207886,-0.68100584,279,"2023-01-15T13:57:23.801Z"
58,0.32275146,0.38168702,-0.881167,277,"2023-01-15T13:58:24.364Z"
65,0.30303222,0.26945314,-0.92909914,276,"2023-01-15T13:59:24.926Z"
49,0.29532716,0.34555176,-0.9056543,275,"2023-01-15T14:00:25.488Z"
46,0.31335694,0.32089356,-0.9093506,276,"2023-01-15T14:01:26.050Z"
57,-0.5262378,0.07071533,0.819397,277,"2023-01-15T14:02:26.613Z"
71,0.50261474,-0.23881103,0.84406006,278,"2023-01-15T14:03:27.175Z"
72,-0.82926756,-0.1643164,0.33851075,279,"2023-01-15T14:04:27.737Z"
79,-0.9051465,0.44221437,0.038459472,282,"2023-01-15T14:05:28.299Z"
70,-0.32030517,0.937312,0.01126709,286,"2023-01-15T14:06:28.862Z"
62,-0.65773195,0.739729,-0.17189454,288,"2023-01-15T14:07:29.424Z"
72,-0.7546387,0.5913208,-0.1107373,287,"2023-01-15T14:08:29.986Z"
73,-0.6272949,0.7555664,0.038483888,287,"2023-01-15T14:09:30.548Z"
74,-0.08191162,0.9198657,0.33926025,288,"2023-01-15T14:10:31.111Z"
49,0.69807374,0.35917723,0.6356567,282,"2023-01-15T14:11:31.673Z"
65,0.6175952,0.43895996,0.38029054,290,"2023-01-15T14:12:32.235Z"
82,-0.81569093,0.49552247,-0.070214845,291,"2023-01-15T14:13:32.797Z"
66,-0.87345946,0.4437793,0.05142334,290,"2023-01-15T14:14:33.359Z"
49,-0.8680151,0.44303468,0.08628662,287,"2023-01-15T14:15:33.922Z"
50,-0.67344725,0.62875485,-0.39821288,283,"2023-01-15T14:16:34.484Z"
65,-0.8949658,0.40424562,0.00809082,283,"2023-01-15T14:17:35.046Z"
66,-0.8880615,0.41492188,0.060996093,281,"2023-01-15T14:18:35.609Z"
61,-0.8788965,0.4292578,0.08329102,278,"2023-01-15T14:19:36.171Z"
61,-1.159419,0.511333,0.09627686,279,"2023-01-15T14:20:36.733Z"
82,-0.90151125,0.40216064,0.009916992,277,"2023-01-15T14:21:37.295Z"
76,-1.0651611,0.1225415,-0.057329103,277,"2023-01-15T14:22:37.858Z"
84,-0.60897946,0.7154224,-0.20443848,278,"2023-01-15T14:23:38.420Z"
76,-0.011196289,1.0242407,0.10427246,279,"2023-01-15T14:24:38.982Z"
64,0.14955078,0.5917236,-0.8151123,281,"2023-01-15T14:25:39.545Z"
55,-0.5313037,0.24302001,0.77077883,281,"2023-01-15T14:26:40.107Z"
82,-0.43970215,0.38633546,0.6887427,277,"2023-01-15T14:27:40.669Z"
63,-0.67769533,0.18652833,0.6981543,278,"2023-01-15T14:28:41.231Z"
79,-0.6959424,0.18423584,0.6813208,280,"2023-01-15T14:29:41.794Z"
90,-0.665127,0.15411377,0.7023779,279,"2023-01-15T14:30:42.356Z"
81,-0.69696534,0.13866943,0.6798437,278,"2023-01-15T14:31:42.918Z"
85,-0.68268555,0.24040039,0.67552733,271,"2023-01-15T14:32:43.480Z"
83,-0.71518797,0.35295165,0.5983838,272,"2023-01-15T14:33:44.043Z"
87,-0.68812746,0.15410401,0.6609961,268,"2023-01-15T14:34:44.605Z"
81,-0.6893335,0.16023926,0.6968384,270,"2023-01-15T14:35:45.167Z"
67,-0.6875757,0.13039063,0.6841626,271,"2023-01-15T14:36:45.729Z"
71,-0.6876929,0.035595704,0.6861328,272,"2023-01-15T14:37:46.292Z"
64,-0.7123096,0.10014404,0.6540942,272,"2023-01-15T14:38:46.854Z"
68,-0.6745801,0.14129639,0.68650144,271,"2023-01-15T14:39:47.416Z"
75,-0.6888428,0.13323241,0.6784619,269,"2023-01-15T14:40:47.979Z"
74,-0.6676489,0.24681397,0.66984373,270,"2023-01-15T14:41:48.541Z"
78,-0.6858618,0.16259032,0.6756445,270,"2023-01-15T14:42:49.103Z"
63,0.27448976,0.9563403,-0.1445752,270,"2023-01-15T14:43:49.665Z"
58,-0.672456,-0.27443603,0.6632666,268,"2023-01-15T14:44:50.228Z"
58,-0.60887206,0.21435302,0.7359985,268,"2023-01-15T14:45:50.790Z"
66,-0.31278566,0.43746826,-0.8499585,268,"2023-01-15T14:46:51.352Z"
72,-0.16227539,0.8548291,0.23653077,269,"2023-01-15T14:47:51.914Z"
71,0.3548047,0.6511255,-0.6930957,272,"2023-01-15T14:48:52.477Z"
61,-0.64201415,0.68317384,0.29914308,272,"2023-01-15T14:49:53.039Z"
68,0.5819385,0.64287597,-0.005649414,273,"2023-01-15T14:50:53.601Z"
71,-0.8250122,0.4830957,0.09951416,274,"2023-01-15T14:51:54.163Z"
56,0.41337645,0.90043455,0.150354,277,"2023-01-15T14:52:54.726Z"
56,0.19743408,0.6018262,-0.7929346,276,"2023-01-15T14:53:55.288Z"
57,0.38957518,0.79126954,-0.49127442,278,"2023-01-15T14:54:55.850Z"
56,0.5154199,0.768584,-0.40611815,279,"2023-01-15T14:55:56.413Z"
54,-0.83339846,0.6609228,0.10396484,281,"2023-01-15T14:56:56.975Z"
63,-0.85969484,0.31485108,0.41413575,283,"2023-01-15T14:57:57.537Z"
63,-0.851897,0.45672607,0.15488037,283,"2023-01-15T14:58:58.099Z"
68,-0.8311792,0.42502686,0.15739258,284,"2023-01-15T14:59:58.662Z"
70,-0.6336401,0.6842847,0.113283694,281,"2023-01-15T15:00:59.224Z"
62,0.2701001,0.7356543,-0.63343996,284,"2023-01-15T15:01:59.786Z"
59,-0.892146,0.4088843,-0.021774903,284,"2023-01-15T15:03:00.348Z"
63,-0.89456785,0.27100587,0.28749755,285,"2023-01-15T15:04:00.911Z"
75,-0.8303369,0.4906543,0.0570459,283,"2023-01-15T15:05:01.473Z"
64,0.49506837,0.86030275,0.12891845,285,"2023-01-15T15:06:02.035Z"
74,-0.5722412,0.62625,0.45523438,284,"2023-01-15T15:07:02.597Z"
79,-0.64606935,0.17370361,0.72815675,282,"2023-01-15T15:08:03.160Z"
81,-0.2405371,0.9069971,0.30958983,284,"2023-01-15T15:09:03.722Z"
83,-0.7455151,-0.05421631,0.6338403,284,"2023-01-15T15:10:04.284Z"
75,-0.6703491,0.115288086,0.6749829,281,"2023-01-15T15:11:04.846Z"
62,-0.38562256,0.16050537,0.89041746,280,"2023-01-15T15:12:05.409Z"
75,-0.7535596,0.08098877,0.6008838,277,"2023-01-15T15:13:05.971Z"
95,-0.72530276,0.10591309,0.6618701,271,"2023-01-15T15:14:06.533Z"
106,-0.69785887,0.057353515,0.68984133,271,"2023-01-15T15:15:07.095Z"
113,-0.5792481,0.42491454,0.6459375,273,"2023-01-15T15:16:07.658Z"
113,-0.27656007,0.42389405,0.79099363,274,"2023-01-15T15:17:08.220Z"
72,-0.5845776,0.15244628,0.7711841,276,"2023-01-15T15:18:08.782Z"
69,-0.46453857,0.1594165,0.833894,270,"2023-01-15T15:19:09.344Z"
61,-0.45704833,0.41384277,0.76584226,272,"2023-01-15T15:20:09.907Z"
73,-0.6367822,0.2578418,0.6981543,275,"2023-01-15T15:21:10.469Z"
66,-0.61080325,0.27964842,0.6941943,276,"2023-01-15T15:22:11.031Z"
77,-0.71769285,0.3370337,0.5950073,278,"2023-01-15T15:23:11.594Z"
95,-0.5422412,-0.1284961,0.80838376,274,"2023-01-15T15:24:12.156Z"
79,0.95634764,0.22139649,0.30687743,278,"2023-01-15T15:25:12.718Z"
90,0.7036304,0.10547852,0.392937,279,"2023-01-15T15:26:13.280Z"
97,0.88627684,0.45106688,0.21695557,280,"2023-01-15T15:27:13.843Z"
94,0.85616213,0.15487793,0.52294433,280,"2023-01-15T15:28:14.405Z"
83,-1.0068555,0.3010083,0.20909911,281,"2023-01-15T15:29:14.967Z"
67,-0.91892576,0.3033838,0.16790527,283,"2023-01-15T15:30:15.529Z"
59,-0.9350635,0.25471923,0.13296631,282,"2023-01-15T15:31:16.092Z"
61,-0.94374025,0.20513916,0.16623536,280,"2023-01-15T15:32:16.654Z"
57,-0.9441333,0.27079347,0.03666992,278,"2023-01-15T15:33:17.216Z"
69,0.4020508,0.5380884,0.7334668,276,"2023-01-15T15:34:17.778Z"
72,-0.49750978,0.72667235,0.33536866,278,"2023-01-15T15:35:18.341Z"
76,0.477334,0.7102124,0.52106446,279,"2023-01-15T15:36:18.903Z"
67,-0.87875485,0.5226782,0.02951416,281,"2023-01-15T15:37:19.465Z"
80,-0.9110303,0.33397704,0.11638184,280,"2023-01-15T15:38:20.027Z"
71,-0.6569263,0.62317383,0.22299561,281,"2023-01-15T15:39:20.590Z"
68,0.7904614,0.20613281,0.6239087,277,"2023-01-15T15:40:21.152Z"
75,-0.6967651,0.1268579,0.6758008,282,"2023-01-15T15:41:21.714Z"
85,-0.68917966,-0.010676269,0.6866821,283,"2023-01-15T15:42:22.276Z"
79,-0.68353516,0.06546387,0.70814455,282,"2023-01-15T15:43:22.839Z"
83,-0.71559817,0.03716797,0.6786768,281,"2023-01-15T15:44:23.401Z"
68,-0.6715161,0.052277833,0.71967775,283,"2023-01-15T15:45:23.963Z"
78,-0.9758911,-0.07996338,0.09286621,283,"2023-01-15T15:46:24.525Z"
70,-0.91957766,0.018364258,0.331604,281,"2023-01-15T15:47:25.088Z"
65,0.095073245,0.97284424,-0.058032226,283,"2023-01-15T15:48:25.650Z"
70,-0.9050879,0.31900635,0.20491455,283,"2023-01-15T15:49:26.212Z"
72,0.11795654,0.69793457,-0.71638185,283,"2023-01-15T15:50:26.774Z"
69,0.45034423,0.87889403,-0.20455079,283,"2023-01-15T15:51:27.337Z"
82,-0.90445554,0.34677246,0.16835205,283,"2023-01-15T15:52:27.899Z"
81,-0.7205835,-0.012609864,0.64477783,283,"2023-01-15T15:53:28.461Z"
65,-0.21139893,0.4427368,-0.8751001,281,"2023-01-15T15:54:29.023Z"
76,-0.6213623,-0.049475096,0.7516724,280,"2023-01-15T15:55:29.586Z"
75,-0.73464113,0.03052002,0.65786624,277,"2023-01-15T15:56:30.148Z"
76,-0.72273195,0.03272705,0.65611815,281,"2023-01-15T15:57:30.710Z"
71,-0.6935547,0.093349606,0.69521976,281,"2023-01-15T15:58:31.272Z"
80,-0.6031079,0.72350585,0.3453833,281,"2023-01-15T15:59:31.835Z"
78,0.3719702,0.8266138,-0.44270507,281,"2023-01-15T16:00:32.397Z"
72,-0.7082666,0.05118164,0.65874267,281,"2023-01-15T16:01:32.959Z"
71,-0.74125,0.051694337,0.6575781,284,"2023-01-15T16:02:33.521Z"
65,-0.775896,0.13272217,0.6019458,285,"2023-01-15T16:03:34.084Z"
76,-0.9783472,-0.073632814,-0.047470704,285,"2023-01-15T16:04:34.646Z"
70,-0.6361792,-0.23949707,0.71005857,284,"2023-01-15T16:05:35.208Z"
73,-0.5278955,0.8258984,-0.050507814,285,"2023-01-15T16:06:35.771Z"
62,-0.66084963,0.11728272,0.707605,287,"2023-01-15T16:07:36.333Z"
79,-0.67611575,0.14994873,0.68366945,287,"2023-01-15T16:08:36.895Z"
69,-0.3844922,0.38675293,0.8180127,286,"2023-01-15T16:09:37.457Z"
81,-0.20453125,0.47705323,0.82222414,286,"2023-01-15T16:10:38.020Z"
75,-0.70407224,0.12777832,0.6967212,286,"2023-01-15T16:11:38.582Z"
79,-0.38254395,0.17088623,0.9189941,286,"2023-01-15T16:12:39.144Z"
59,0.29213867,0.7302368,-0.62481445,286,"2023-01-15T16:13:39.706Z"
54,0.29339355,0.808103,-0.52086425,286,"2023-01-15T16:14:40.269Z"
84,-0.23710205,0.2613989,-0.9397168,286,"2023-01-15T16:15:40.831Z"
90,0.2403296,0.74528563,-0.63217044,286,"2023-01-15T16:16:41.393Z"
92,0.43346435,0.026098633,-0.92031497,287,"2023-01-15T16:17:41.955Z"
84,0.58665526,0.78555906,0.19526367,290,"2023-01-15T16:18:42.518Z"
73,-0.22073975,0.62304443,-0.74919677,292,"2023-01-15T16:19:43.080Z"
85,-0.7924536,0.6100513,0.14484863,295,"2023-01-15T16:20:43.642Z"
84,0.3301709,0.7881811,-0.53197265,296,"2023-01-15T16:21:44.204Z"
82,-0.68316895,0.098962404,0.7039966,294,"2023-01-15T16:22:44.767Z"
87,-0.66854006,0.1985547,0.6819922,297,"2023-01-15T16:23:45.329Z"
83,-0.5609351,0.35227785,0.71186525,294,"2023-01-15T16:24:45.891Z"
80,-0.62311524,0.27956054,0.7294775,295,"2023-01-15T16:25:46.453Z"
62,-0.5611987,0.29350585,0.7428882,295,"2023-01-15T16:26:47.016Z"
83,-0.7235376,0.008020019,0.6576172,294,"2023-01-15T16:27:47.578Z"
64,-0.5073999,0.6119409,0.29143065,294,"2023-01-15T16:28:48.140Z"
73,0.22760986,0.7997095,-0.5644238,295,"2023-01-15T16:29:48.702Z"
67,-0.4721338,0.79421633,0.14731689,295,"2023-01-15T16:30:49.264Z"
79,-0.3488501,0.44855958,0.6502759,294,"2023-01-15T16:31:49.827Z"
83,0.898479,0.40237305,-0.23342773,295,"2023-01-15T16:32:50.389Z"
88,-0.3088379,0.8714526,-0.2397412,295,"2023-01-15T16:33:50.951Z"
79,-0.18603027,0.71073973,-0.6555493,296,"2023-01-15T16:34:51.513Z"
101,0.9850635,-0.29153565,0.04564209,296,"2023-01-15T16:35:52.076Z"
123,-0.49828857,0.61274415,0.58006346,297,"2023-01-15T16:36:52.638Z"
112,-0.69285643,0.754187,0.012907715,299,"2023-01-15T16:37:53.200Z"
113,-0.50866455,0.48897216,0.6652197,299,"2023-01-15T16:38:53.762Z"
92,-0.70945555,0.6714917,-0.122919925,300,"2023-01-15T16:39:54.325Z"
79,-0.039968263,0.78393555,-0.4550879,297,"2023-01-15T16:40:54.887Z"
69,-0.6494263,0.740354,0.25213867,295,"2023-01-15T16:41:55.449Z"
64,-0.20781738,0.8700415,-0.42291993,295,"2023-01-15T16:42:56.011Z"
66,0.041520998,0.8933716,-0.37694335,294,"2023-01-15T16:43:56.574Z"
61,-0.12203857,0.76451904,-0.6304517,293,"2023-01-15T16:44:57.136Z"
59,-0.21310058,0.8423999,-0.47743407,294,"2023-01-15T16:45:57.698Z"
72,0.8782373,0.2110962,0.17819092,294,"2023-01-15T16:46:58.260Z"
73,-0.25223878,0.89358157,0.2171582,297,"2023-01-15T16:47:58.823Z"
76,-0.19520263,0.9487158,0.16672607,294,"2023-01-15T16:48:59.385Z"
95,-0.8805371,0.5994995,0.18158203,294,"2023-01-15T16:49:59.947Z"
81,-0.42866457,0.7978711,-0.21476807,295,"2023-01-15T16:51:00.509Z"
65,-0.62291014,0.51000977,0.5520215,295,"2023-01-15T16:52:01.072Z"
71,-0.83876467,0.49932128,0.005004883,294,"2023-01-15T16:53:01.634Z"
75,-0.19240722,0.9488916,-0.17399903,293,"2023-01-15T16:54:02.196Z"
72,-0.17594482,0.8793628,-0.050942384,288,"2023-01-15T16:55:02.758Z"
81,-0.5944995,0.6434595,-0.28722656,291,"2023-01-15T16:56:03.321Z"
74,-0.33332032,0.9604004,-0.036853027,293,"2023-01-15T16:57:03.883Z"
90,-0.46183595,0.71317136,0.44232178,295,"2023-01-15T16:58:04.445Z"
83,-0.112849124,0.8633203,-0.44400147,296,"2023-01-15T16:59:05.007Z"
53,-0.046379395,0.8583838,-0.57510495,299,"2023-01-15T17:00:05.569Z"
76,-0.48458984,0.1338623,0.8131567,292,"2023-01-15T17:01:06.132Z"
81,-0.19610107,0.96434814,0.28831542,297,"2023-01-15T17:02:06.694Z"
85,-0.3724829,0.03189453,0.8942602,301,"2023-01-15T17:03:07.256Z"
80,0.13298827,0.8511475,-0.4851709,301,"2023-01-15T17:04:07.804Z"
87,-0.05292969,0.7290039,0.5674512,300,"2023-01-15T17:05:08.366Z"
80,0.08853516,0.9666968,-0.109680176,301,"2023-01-15T17:06:08.928Z"
90,0.29233888,0.87336916,0.42185548,302,"2023-01-15T17:07:09.490Z"
92,-0.57200927,0.15536132,0.7109326,297,"2023-01-15T17:08:10.053Z"
79,-0.22749268,0.84316653,0.46842286,298,"2023-01-15T17:09:10.615Z"
88,-0.752478,0.6277539,0.05196289,304,"2023-01-15T17:10:11.177Z"
74,0.33914796,0.37926757,0.64103514,305,"2023-01-15T17:11:11.740Z"
84,-0.34136963,0.41595215,0.82739747,303,"2023-01-15T17:12:12.302Z"
83,0.2962622,0.91225344,0.3047754,302,"2023-01-15T17:13:12.864Z"
84,0.27316406,0.9569873,0.06695312,300,"2023-01-15T17:14:13.426Z"
73,0.06116455,0.3794165,0.88401365,301,"2023-01-15T17:15:13.988Z"
75,0.14958252,0.8877808,0.42539796,303,"2023-01-15T17:16:14.551Z"
79,0.5389868,0.80252194,-0.31016114,303,"2023-01-15T17:17:15.113Z"
75,0.2755957,0.93659914,-0.24925293,303,"2023-01-15T17:18:15.675Z"
67,-0.24017578,0.028168945,0.91487306,301,"2023-01-15T17:19:16.237Z"
74,-0.6958545,0.59589845,0.33761963,302,"2023-01-15T17:20:16.799Z"
81,-0.40611085,0.27316895,0.86615723,302,"2023-01-15T17:21:17.362Z"
78,-0.105402835,0.8795825,0.45398682,306,"2023-01-15T17:22:17.924Z"
72,-0.8598706,0.4580249,0.11844239,305,"2023-01-15T17:23:18.486Z"
64,-0.08712158,0.6175415,0.69107664,299,"2023-01-15T17:24:19.049Z"
79,-0.24643067,0.7214014,0.6342261,301,"2023-01-15T17:25:19.611Z"
64,-0.58203125,-0.103754885,0.78306395,298,"2023-01-15T17:26:20.173Z"
77,-0.06457764,0.8871094,0.07797119,305,"2023-01-15T17:27:20.735Z"
83,-0.08136231,0.9878101,-0.10843506,305,"2023-01-15T17:28:21.297Z"
75,0.19547363,0.9690796,-0.092612304,304,"2023-01-15T17:29:21.860Z"
83,0.35175294,0.64392823,0.30523926,304,"2023-01-15T17:30:22.421Z"
72,-0.90168214,0.312876,0.18584229,305,"2023-01-15T17:31:22.984Z"
82,-0.15767334,0.8016553,-0.2959253,304,"2023-01-15T17:32:23.546Z"
79,-0.088881835,1.0064844,-0.0032250977,304,"2023-01-15T17:33:24.109Z"
77,-0.25445068,0.44384766,0.7580176,304,"2023-01-15T17:34:24.671Z"
79,-0.41180664,0.60013914,0.64557374,302,"2023-01-15T17:35:25.233Z"
78,-0.39402345,0.9118897,-0.13966064,301,"2023-01-15T17:36:25.795Z"
88,-0.046220705,0.95796144,0.16960694,301,"2023-01-15T17:37:26.358Z"
95,-0.0053466796,0.90123534,-0.32720703,303,"2023-01-15T17:38:26.920Z"
82,0.28057128,0.9465112,-0.08672119,303,"2023-01-15T17:39:27.482Z"
89,0.30885985,0.62188965,0.6704395,302,"2023-01-15T17:40:28.044Z"
64,0.452771,0.88601077,-0.1529419,304,"2023-01-15T17:41:28.606Z"
59,0.52323484,0.70248777,-0.506582,305,"2023-01-15T17:42:29.169Z"
80,0.3941284,0.7058545,0.5263037,304,"2023-01-15T17:43:29.731Z"
52,0.003449707,0.99490964,-0.044040527,306,"2023-01-15T17:44:30.293Z"
60,0.2794995,0.7223047,0.55205566,305,"2023-01-15T17:45:30.855Z"
67,0.39350587,0.61298585,0.60881346,305,"2023-01-15T17:46:31.418Z"
60,0.15627685,0.9912378,0.09829345,306,"2023-01-15T17:47:31.980Z"
75,0.22951417,0.981106,0.10322022,303,"2023-01-15T17:48:32.542Z"
62,0.4952661,0.8582422,-0.1052417,305,"2023-01-15T17:49:33.104Z"
77,0.35680664,0.9403247,-0.08023926,306,"2023-01-15T17:50:33.667Z"
71,0.27429444,0.83092284,0.27663818,305,"2023-01-15T17:51:34.229Z"
62,-0.009414063,0.9345532,0.3341211,305,"2023-01-15T17:52:34.791Z"
74,0.2686035,0.8250049,0.4784253,304,"2023-01-15T17:53:35.353Z"
65,0.28330812,0.94794923,0.09446533,305,"2023-01-15T17:54:35.916Z"
71,0.18378419,0.7786743,0.5642749,302,"2023-01-15T17:55:36.478Z"
54,0.04736084,0.94490236,-0.32563964,304,"2023-01-15T17:56:37.040Z"
52,0.051047362,0.93798095,-0.34578368,304,"2023-01-15T17:57:37.602Z"
53,-0.26920167,0.7603882,-0.5548877,302,"2023-01-15T17:58:38.165Z"
84,0.7204126,0.62479246,-0.33516845,302,"2023-01-15T17:59:38.726Z"
70,0.289834,0.53453124,-0.8100171,303,"2023-01-15T18:00:39.289Z"
50,0.80748045,-0.605918,0.1852661,302,"2023-01-15T18:01:39.851Z"
59,0.89453614,-0.37148193,0.32943115,303,"2023-01-15T18:02:40.413Z"
56,0.93622804,-0.38519043,0.0925293,302,"2023-01-15T18:03:40.976Z"
69,0.90458983,-0.47973877,-0.01239502,301,"2023-01-15T18:04:41.538Z"
49,0.78802,-0.18629639,0.61561525,299,"2023-01-15T18:05:42.100Z"
59,0.85864013,-0.5472095,-0.047990724,300,"2023-01-15T18:06:42.662Z"
50,0.0542334,0.6893433,-0.7298364,301,"2023-01-15T18:07:43.225Z"
59,0.2542505,-0.31209472,-0.9300098,305,"2023-01-15T18:08:43.787Z"
56,0.07123291,0.90808105,-0.41643065,306,"2023-01-15T18:09:44.349Z"
54,0.06777832,0.91058594,-0.4145215,306,"2023-01-15T18:10:44.911Z"
60,0.731665,0.5170923,0.44259277,307,"2023-01-15T18:11:45.474Z"
62,0.93947756,-0.4069336,-0.025341798,309,"2023-01-15T18:12:46.036Z"
59,0.92307127,-0.17381348,0.39860108,311,"2023-01-15T18:13:46.598Z"
66,0.9595288,-0.34877196,0.02734375,309,"2023-01-15T18:14:47.160Z"
61,0.9173169,-0.45782226,0.024406739,309,"2023-01-15T18:15:47.722Z"
53,0.9407593,-0.37774658,0.14151612,309,"2023-01-15T18:16:48.285Z"
53,0.9333667,-0.42414063,0.023435058,313,"2023-01-15T18:17:48.847Z"
57,0.9083472,-0.4662012,0.02267334,312,"2023-01-15T18:18:49.409Z"
57,-0.23739502,0.92253906,0.1902417,312,"2023-01-15T18:19:49.971Z"
70,-0.04039795,0.918916,0.36986327,314,"2023-01-15T18:20:50.534Z"
58,0.900791,-0.46095458,0.15658936,313,"2023-01-15T18:21:51.096Z"
57,-0.039399415,0.9518286,-0.36233154,315,"2023-01-15T18:22:51.658Z"
56,0.80269533,-0.57229006,0.27825928,315,"2023-01-15T18:23:52.220Z"
68,0.4641333,0.7544897,-0.4829663,314,"2023-01-15T18:24:52.782Z"
59,0.7508447,-0.6629394,0.21335693,311,"2023-01-15T18:25:53.345Z"
62,0.989353,-0.20291504,0.15934326,314,"2023-01-15T18:26:53.907Z"
62,-0.15244384,0.62625,0.7382568,313,"2023-01-15T18:27:54.469Z"
78,0.23775147,0.809292,-0.30141845,312,"2023-01-15T18:28:55.031Z"
83,-0.390708,0.81600344,0.2789087,312,"2023-01-15T18:29:55.594Z"
87,-0.45185792,0.8143457,0.26704833,310,"2023-01-15T18:30:56.156Z"
96,-0.4391699,0.79356444,-0.04939209,310,"2023-01-15T18:31:56.718Z"
81,-0.3778955,0.8626758,0.20034179,310,"2023-01-15T18:32:57.280Z"
88,-0.53841066,0.58810544,0.55988526,308,"2023-01-15T18:33:57.843Z"
78,-0.47124267,0.7334399,0.4452124,309,"2023-01-15T18:34:58.405Z"
86,-0.48040527,0.647583,-0.5857544,308,"2023-01-15T18:35:58.967Z"
83,-0.5373999,0.8215234,-0.060288087,307,"2023-01-15T18:36:59.529Z"
79,0.21702148,0.7680395,0.5438037,307,"2023-01-15T18:38:00.092Z"
71,0.06364014,0.9584106,0.25523195,299,"2023-01-15T18:39:00.654Z"
49,0.13833496,0.98908204,-0.0048828125,297,"2023-01-15T18:40:01.216Z"
47,0.31046632,0.865166,0.39406493,297,"2023-01-15T18:41:01.778Z"
71,0.9823999,-0.17703614,0.24324219,301,"2023-01-15T18:42:02.341Z"
52,0.97268796,-0.03017578,0.29592773,304,"2023-01-15T18:43:02.903Z"
61,0.59482664,0.63240725,-0.27929688,303,"2023-01-15T18:44:03.465Z"
84,-0.85349363,0.44348145,0.30246338,302,"2023-01-15T18:45:04.027Z"
89,-0.9095947,0.29194337,-0.21804443,301,"2023-01-15T18:46:04.589Z"
91,-1.0292286,0.19978027,-0.1794336,301,"2023-01-15T18:47:05.152Z"
92,-0.030749511,1.013291,0.20170899,301,"2023-01-15T18:48:05.714Z"
83,-0.83968264,0.47136962,0.23289551,300,"2023-01-15T18:49:06.276Z"
91,0.95806885,0.16415527,0.23342529,300,"2023-01-15T18:50:06.838Z"
97,-0.74772704,0.58411866,-0.43024415,302,"2023-01-15T18:51:07.401Z"
69,-0.17839843,0.95693606,-0.16653076,303,"2023-01-15T18:52:07.963Z"
91,-0.156875,0.94208497,-0.24817628,301,"2023-01-15T18:53:08.525Z"
95,-1.0250123,0.4818506,0.07106934,300,"2023-01-15T18:54:09.087Z"
93,0.40612793,0.736897,-0.054711916,301,"2023-01-15T18:55:09.650Z"
97,-0.030056152,0.7818628,0.14526612,301,"2023-01-15T18:56:10.212Z"
86,-0.2179663,0.88039064,0.359292,300,"2023-01-15T18:57:10.774Z"
88,-0.1744165,0.92096436,0.29588866,300,"2023-01-15T18:58:11.336Z"
84,-0.16675293,0.7538281,0.61604494,299,"2023-01-15T18:59:11.898Z"
83,0.30046386,0.8063501,0.52680665,300,"2023-01-15T19:00:12.461Z"
85,0.1762329,0.86828613,0.46144044,299,"2023-01-15T19:01:13.023Z"
70,0.35246095,0.88518554,-0.3215332,299,"2023-01-15T19:02:13.585Z"
65,0.23626709,0.7825562,0.5773926,297,"2023-01-15T19:03:14.147Z"
66,0.20805176,0.781604,0.48757324,295,"2023-01-15T19:04:14.710Z"
78,0.19382568,0.7618457,0.42913085,295,"2023-01-15T19:05:15.272Z"
75,0.06620605,1.0018702,-0.028156739,294,"2023-01-15T19:06:15.834Z"
72,0.1622046,0.50683594,0.83995116,291,"2023-01-15T19:07:16.396Z"
46,0.12889405,0.4678418,0.86351806,291,"2023-01-15T19:08:16.959Z"
49,0.07890869,0.49501708,0.85620606,292,"2023-01-15T19:09:17.521Z"
47,0.07820556,0.5274927,0.8356909,292,"2023-01-15T19:10:18.083Z"
53,0.017963868,0.9896387,0.096645504,292,"2023-01-15T19:11:18.646Z"
49,0.10057617,0.5209839,0.8389038,290,"2023-01-15T19:12:19.208Z"
54,0.060512695,0.50881106,0.8487842,289,"2023-01-15T19:13:19.770Z"
55,0.081589356,0.47136718,0.87037355,288,"2023-01-15T19:14:20.332Z"
62,0.061237793,0.42256346,0.89511716,288,"2023-01-15T19:15:20.895Z"
53,0.095385745,0.4265332,0.89227295,288,"2023-01-15T19:16:21.457Z"
58,0.2812793,0.89811033,-0.37128663,288,"2023-01-15T19:17:22.019Z"
53,0.5774805,0.7708936,0.29006103,286,"2023-01-15T19:18:22.581Z"
55,0.105456546,0.43479005,0.88601077,287,"2023-01-15T19:19:23.144Z"
58,0.11056396,0.49223146,0.85531735,286,"2023-01-15T19:20:23.706Z"
56,0.097658694,0.4514795,0.8794141,286,"2023-01-15T19:21:24.268Z"
56,0.09797607,0.48003662,0.8641162,286,"2023-01-15T19:22:24.830Z"
50,0.08989014,0.45746338,0.87752444,286,"2023-01-15T19:23:25.393Z"
54,0.1077417,0.47919923,0.86385256,285,"2023-01-15T19:24:25.955Z"
66,0.11008545,0.44992188,0.8840991,284,"2023-01-15T19:25:26.517Z"
52,0.10289307,0.48151612,0.8628809,282,"2023-01-15T19:26:27.079Z"
64,0.0657666,0.4367798,0.8868628,282,"2023-01-15T19:27:27.641Z"
53,0.088398434,0.4744336,0.8662793,281,"2023-01-15T19:28:28.204Z"
57,0.10984375,0.46664795,0.8730249,280,"2023-01-15T19:29:28.766Z"
49,0.1429541,0.61778075,0.7657861,279,"2023-01-15T19:30:29.328Z"
57,0.5868726,0.11553467,0.7388867,279,"2023-01-15T19:31:29.890Z"
66,0.20346192,0.71924806,-0.67104006,278,"2023-01-15T19:32:30.453Z"
48,0.19724609,0.8178125,-0.54921633,277,"2023-01-15T19:33:31.015Z"
46,0.16790771,0.79052246,-0.5965942,275,"2023-01-15T19:34:31.577Z"
68,0.14192139,0.4840918,0.8575415,273,"2023-01-15T19:35:32.139Z"
48,0.14402343,0.37857667,0.91015625,273,"2023-01-15T19:36:32.702Z"
54,0.1698999,0.5133447,0.8357227,275,"2023-01-15T19:37:33.264Z"
57,0.13638183,0.43709472,0.88375974,275,"2023-01-15T19:38:33.826Z"
48,0.16433838,0.5097412,0.8396582,275,"2023-01-15T19:39:34.389Z"
61,0.17689942,0.86287355,0.32697266,275,"2023-01-15T19:40:34.951Z"
81,-0.8593848,0.56633544,-0.20439453,273,"2023-01-15T19:41:35.513Z"
89,-1.0377319,0.49036133,0.062075194,273,"2023-01-15T19:42:36.075Z"
89,-1.0188745,0.4903833,0.06173096,274,"2023-01-15T19:43:36.638Z"
91,-0.30366457,0.95345706,-0.05459717,274,"2023-01-15T19:44:37.200Z"
105,0.42233887,0.64522463,-0.036218263,274,"2023-01-15T19:45:37.762Z"
97,-0.9265478,0.31459227,-0.062390137,271,"2023-01-15T19:46:38.324Z"
102,-0.060473632,0.87374514,-0.12016602,263,"2023-01-15T19:47:38.887Z"
91,-0.533479,0.5168384,0.6315332,261,"2023-01-15T19:48:39.449Z"
96,-0.52894044,0.8003101,0.1280664,262,"2023-01-15T19:49:39.996Z"
93,-0.031813964,0.67224365,-0.58973634,262,"2023-01-15T19:50:40.559Z"
91,0.13007325,0.8131201,0.5569556,261,"2023-01-15T19:51:41.121Z"
55,0.14562255,0.69029784,-0.7159375,262,"2023-01-15T19:52:41.683Z"
50,0.15611573,0.6662402,-0.7384619,263,"2023-01-15T19:53:42.246Z"
55,0.031586915,0.9749341,0.19420898,263,"2023-01-15T19:54:42.808Z"
56,0.48979735,0.63205075,0.5524609,264,"2023-01-15T19:55:43.370Z"
62,0.437876,0.55253905,-0.7428809,265,"2023-01-15T19:56:43.932Z"
67,0.18387452,0.81349367,0.55215573,267,"2023-01-15T19:57:44.495Z"
67,-0.623811,0.33323488,-0.70153564,266,"2023-01-15T19:58:45.057Z"
67,-0.055632323,0.5676074,0.8050415,265,"2023-01-15T19:59:45.619Z"
74,0.059765626,0.94180906,-0.16709472,264,"2023-01-15T20:00:46.181Z"
80,0.49175292,0.879104,-0.0126928715,264,"2023-01-15T20:01:46.744Z"
56,0.61833495,0.4407251,-0.67510986,264,"2023-01-15T20:02:47.306Z"
65,0.4579321,0.8166724,0.31598145,262,"2023-01-15T20:03:47.868Z"
69,0.50998044,0.8302368,-0.26587158,267,"2023-01-15T20:04:48.430Z"
56,0.53423095,0.6710571,-0.5353857,268,"2023-01-15T20:05:48.978Z"
62,0.50612795,0.59677005,0.63100344,264,"2023-01-15T20:06:49.540Z"
59,-0.21269776,0.9161816,-0.31893554,263,"2023-01-15T20:07:50.103Z"
58,-0.20482178,0.93301755,-0.28349122,257,"2023-01-15T20:08:50.665Z"
45,-0.2597168,0.95530516,-0.055471193,255,"2023-01-15T20:09:51.227Z"
44,-0.29860595,0.84980714,-0.4207959,261,"2023-01-15T20:10:51.789Z"
44,-0.4229541,0.75606936,0.46572754,267,"2023-01-15T20:11:52.352Z"
50,-0.28271973,0.828396,0.3600415,276,"2023-01-15T20:12:52.914Z"
58,-0.6750708,0.49488282,-0.53328615,282,"2023-01-15T20:13:53.476Z"
70,0.41944093,0.6312915,-0.66112304,278,"2023-01-15T20:14:54.038Z"
63,0.70407224,0.61071044,-0.3929663,276,"2023-01-15T20:15:54.601Z"
47,0.25253662,0.9373438,0.23308837,278,"2023-01-15T20:16:55.162Z"
66,-0.6610938,0.68663573,0.20244141,276,"2023-01-15T20:17:55.725Z"
62,-0.41593507,0.3148364,-0.85510254,279,"2023-01-15T20:18:56.273Z"
74,-0.83696043,0.4977173,0.07890869,279,"2023-01-15T20:19:56.835Z"
53,0.026667481,0.963479,0.23742187,282,"2023-01-15T20:20:57.397Z"
57,0.13295166,0.8317798,0.52275634,281,"2023-01-15T20:21:57.959Z"
51,-0.15000488,0.9194019,0.33508545,283,"2023-01-15T20:22:58.522Z"
45,-0.05407715,0.7315894,0.66535157,283,"2023-01-15T20:23:59.084Z"
43,-0.09891846,0.9371289,0.29968262,282,"2023-01-15T20:24:59.646Z"
42,-0.037580565,0.9500977,0.28342286,284,"2023-01-15T20:26:00.208Z"
46,-0.048493654,0.90006834,0.41382813,288,"2023-01-15T20:27:00.770Z"
44,-0.043408204,0.90254396,0.40733397,294,"2023-01-15T20:28:01.333Z"
55,-0.05090576,0.8150952,0.55743164,296,"2023-01-15T20:29:01.895Z"
45,-0.01906494,0.6736328,0.72410154,296,"2023-01-15T20:30:02.458Z"
48,0.6700879,-0.37412354,0.67122805,300,"2023-01-15T20:31:03.020Z"
55,0.21119629,0.52655274,0.816189,297,"2023-01-15T20:32:03.582Z"
50,-0.082648925,0.97541994,0.14494874,300,"2023-01-15T20:33:04.144Z"
46,0.048024904,0.8389819,0.5244751,300,"2023-01-15T20:34:04.706Z"
44,0.058520507,0.90119386,0.41313475,303,"2023-01-15T20:35:05.269Z"
46,0.07215576,0.8693286,0.47503906,305,"2023-01-15T20:36:05.831Z"
56,-0.061994627,0.8799707,0.4497754,309,"2023-01-15T20:37:06.392Z"
41,-0.06703125,0.89286864,0.42491698,306,"2023-01-15T20:38:06.955Z"
50,-0.15168212,0.97894776,0.04123291,302,"2023-01-15T20:39:07.518Z"
49,0.24247803,0.9503003,0.08092529,307,"2023-01-15T20:40:08.080Z"
55,0.09333252,0.9856714,-0.10229492,312,"2023-01-15T20:41:08.642Z"
56,0.3420703,0.9335547,-0.14150147,313,"2023-01-15T20:42:09.204Z"
53,-0.0059716795,0.8961841,0.42538086,312,"2023-01-15T20:43:09.767Z"
53,0.30214354,0.85465574,0.41997313,310,"2023-01-15T20:44:10.329Z"
43,-0.08596435,0.84533936,0.5064917,317,"2023-01-15T20:45:10.891Z"
45,-0.03559082,0.97673583,0.1733252,316,"2023-01-15T20:46:11.453Z"
53,0.30019775,0.6716968,0.67259276,317,"2023-01-15T20:47:12.015Z"
43,-0.22288574,0.96270263,-0.090031736,318,"2023-01-15T20:48:12.578Z"
48,0.16544433,0.7216089,-0.67901856,320,"2023-01-15T20:49:13.140Z"
57,1.0032812,0.11970459,-0.12261963,323,"2023-01-15T20:50:13.702Z"
47,0.8293555,-0.20655762,0.5521069,324,"2023-01-15T20:51:14.264Z"
47,0.7881787,-0.09651123,0.63394046,325,"2023-01-15T20:52:14.827Z"
41,0.8043652,-0.1700708,0.6007349,325,"2023-01-15T20:53:15.389Z"
52,0.80546874,-0.25398436,0.57105714,326,"2023-01-15T20:54:15.951Z"
53,-0.5590381,0.5365552,-0.6230054,329,"2023-01-15T20:55:16.513Z"
48,-0.14733887,0.6478711,0.73073244,331,"2023-01-15T20:56:17.075Z"
45,-0.24800049,0.8634546,0.40823486,332,"2023-01-15T20:57:17.608Z"
45,-0.16643067,0.618291,0.75098145,335,"2023-01-15T20:58:18.170Z"
57,0.31673095,0.85376954,0.41194823,335,"2023-01-15T20:59:18.703Z"
42,-0.2925464,0.8667456,0.37267333,335,"2023-01-15T21:00:19.250Z"
43,-0.36698973,0.5298999,0.74126464,336,"2023-01-15T21:01:19.812Z"
64,0.07693115,0.8607837,0.48852783,339,"2023-01-15T21:02:20.375Z"
64,0.2530591,0.86429685,0.42951417,336,"2023-01-15T21:03:20.922Z"
58,0.25922608,0.54423094,0.8068457,337,"2023-01-15T21:04:21.484Z"
61,-0.9350757,0.27474365,0.112414554,338,"2023-01-15T21:05:22.046Z"
73,-0.91408694,0.4459204,0.087392576,338,"2023-01-15T21:06:22.594Z"
77,0.66238284,0.0971582,0.7732495,336,"2023-01-15T21:07:23.156Z"
53,0.20019531,0.6023584,-0.36693114,333,"2023-01-15T21:08:23.718Z"
67,0.66626465,0.73695314,0.16840576,331,"2023-01-15T21:09:24.280Z"
74,0.66639405,0.744773,0.12985107,332,"2023-01-15T21:10:24.827Z"
59,-0.8103296,0.4016797,0.3569531,332,"2023-01-15T21:11:25.390Z"
52,-0.069545895,0.94648194,0.18923096,327,"2023-01-15T21:12:25.952Z"
56,-0.06364258,0.87113035,-0.48719484,329,"2023-01-15T21:13:26.499Z"
67,-0.25050536,0.9522412,-0.106245115,328,"2023-01-15T21:14:27.062Z"
46,-0.18670166,0.9524048,-0.21700928,329,"2023-01-15T21:15:27.624Z"
73,0.62138915,0.49461183,-0.6287695,327,"2023-01-15T21:16:28.186Z"
42,0.61476564,0.5457422,-0.5899927,326,"2023-01-15T21:17:28.748Z"
40,0.6044775,0.5793579,-0.56814694,326,"2023-01-15T21:18:29.311Z"
54,0.62461424,0.515354,-0.609104,326,"2023-01-15T21:19:29.873Z"
49,0.6187964,0.5336304,-0.5976123,327,"2023-01-15T21:20:30.435Z"
60,0.6110376,0.7572754,-0.27108642,329,"2023-01-15T21:21:30.997Z"
44,0.61986816,0.64216554,-0.47633544,330,"2023-01-15T21:22:31.559Z"
54,0.61018556,0.75559324,-0.27678955,333,"2023-01-15T21:23:32.122Z"
42,0.5747485,0.7950537,-0.23454101,335,"2023-01-15T21:24:32.684Z"
42,0.6019287,0.7624463,-0.27642822,337,"2023-01-15T21:25:33.246Z"
62,-0.47456056,0.651958,0.556958,338,"2023-01-15T21:26:33.808Z"
67,-0.027294923,0.8999097,-0.43517578,338,"2023-01-15T21:27:34.370Z"
54,0.5504614,0.7420459,-0.4098999,334,"2023-01-15T21:28:34.933Z"
52,0.49028808,0.85633546,-0.1897168,331,"2023-01-15T21:29:35.495Z"
75,-0.6614063,0.6856934,0.17998047,328,"2023-01-15T21:30:36.057Z"
73,-0.7231421,0.65476805,-0.009023437,325,"2023-01-15T21:31:36.619Z"
61,-0.25986084,0.9087231,0.29587892,323,"2023-01-15T21:32:37.181Z"
74,-0.101220705,0.8930884,0.4550879,321,"2023-01-15T21:33:37.744Z"
74,0.22818115,0.8138232,0.44026366,318,"2023-01-15T21:34:38.306Z"
75,-0.8481372,0.49113283,0.009873047,320,"2023-01-15T21:35:38.868Z"
68,-0.26843506,0.8320166,0.37113038,320,"2023-01-15T21:36:39.430Z"
40,0.3522241,0.7701099,-0.54720217,319,"2023-01-15T21:37:39.993Z"
43,0.41280273,0.64310545,-0.66104734,318,"2023-01-15T21:38:40.555Z"
47,0.49517822,0.6079614,-0.639834,317,"2023-01-15T21:39:41.117Z"
45,0.3601294,0.6700293,-0.6621753,316,"2023-01-15T21:40:41.679Z"
41,0.31512207,0.71075195,-0.6418677,315,"2023-01-15T21:41:42.241Z"
42,0.3109253,0.7217603,-0.63105226,314,"2023-01-15T21:42:42.804Z"
57,0.28481933,0.74774903,-0.6114038,310,"2023-01-15T21:43:43.366Z"
50,-0.05906494,0.82841796,-0.5585327,310,"2023-01-15T21:44:43.928Z"
44,0.121000975,0.84321535,-0.53065675,314,"2023-01-15T21:45:44.490Z"
40,0.030249024,0.9084644,-0.4190503,316,"2023-01-15T21:46:45.053Z"
63,0.033937987,0.9877905,-0.14151855,318,"2023-01-15T21:47:45.615Z"
69,0.37358397,0.91517335,0.16503173,318,"2023-01-15T21:48:46.177Z"
58,0.01029541,0.9828052,0.15543701,317,"2023-01-15T21:49:46.740Z"
67,0.30453613,0.89513916,0.3246753,316,"2023-01-15T21:50:47.302Z"
59,0.3705615,0.67032224,-0.6562451,318,"2023-01-15T21:51:47.864Z"
62,0.020769043,0.9507812,-0.30313966,317,"2023-01-15T21:52:48.426Z"
40,0.9167774,0.4116992,-0.15553467,318,"2023-01-15T21:53:48.988Z"
65,-0.3936084,0.89484864,0.0832666,317,"2023-01-15T21:54:49.536Z"
64,0.40499267,0.88995117,0.24628419,315,"2023-01-15T21:55:50.098Z"
85,-0.08303711,0.98827636,-0.14983155,312,"2023-01-15T21:56:50.660Z"
77,-0.6088867,0.6330371,-0.4730078,315,"2023-01-15T21:57:51.222Z"
79,0.27907714,0.8188452,0.4305127,314,"2023-01-15T21:58:51.785Z"
63,-0.8729834,0.450354,0.20300293,313,"2023-01-15T21:59:52.347Z"
75,0.62744874,0.7290723,0.099826664,312,"2023-01-15T22:00:52.909Z"
44,0.5850708,0.48922607,-0.66824704,312,"2023-01-15T22:01:53.471Z"
38,0.5866504,0.5502515,-0.6154736,310,"2023-01-15T22:02:54.033Z"
38,0.59850097,0.62630373,-0.5244629,306,"2023-01-15T22:03:54.596Z"
40,0.67389405,0.5701294,-0.49549317,302,"2023-01-15T22:04:55.158Z"
49,0.7841431,0.5387451,-0.35301268,301,"2023-01-15T22:05:55.720Z"
40,0.7426416,0.6833496,-0.07824463,304,"2023-01-15T22:06:56.282Z"
44,0.6212427,0.5527344,-0.57729983,307,"2023-01-15T22:07:56.845Z"
39,0.6451294,0.46870363,-0.6281567,310,"2023-01-15T22:08:57.407Z"
38,0.6504102,0.46387452,-0.62639403,312,"2023-01-15T22:09:57.969Z"
38,0.65106934,0.47875977,-0.6137451,315,"2023-01-15T22:10:58.531Z"
38,0.65070313,0.49793458,-0.59946287,318,"2023-01-15T22:11:59.094Z"
41,0.6614697,0.43652344,-0.6353345,320,"2023-01-15T22:12:59.656Z"
38,0.66191405,0.53041995,-0.55710936,321,"2023-01-15T22:14:00.218Z"
36,0.8453906,0.49966797,0.25112304,323,"2023-01-15T22:15:00.780Z"
37,0.83076906,0.5194849,0.2562378,322,"2023-01-15T22:16:01.343Z"
37,0.8329102,0.5213843,0.2486084,322,"2023-01-15T22:17:01.905Z"
38,0.8258765,0.52682614,0.25745362,323,"2023-01-15T22:18:02.467Z"
37,0.8259106,0.54244876,0.21966553,323,"2023-01-15T22:19:03.029Z"
37,0.81350344,0.5472143,0.24809815,324,"2023-01-15T22:20:03.592Z"
36,0.81340086,0.5439624,0.2562256,324,"2023-01-15T22:21:04.154Z"
37,0.8058374,0.55354494,0.2616626,325,"2023-01-15T22:22:04.716Z"
36,0.80296874,0.54535645,0.28618896,325,"2023-01-15T22:23:05.278Z"
51,0.82071775,-0.20512451,0.5673584,324,"2023-01-15T22:24:05.841Z"
53,0.86575437,-0.30759278,0.4469458,323,"2023-01-15T22:25:06.403Z"
37,0.86172366,-0.32578126,0.44103026,323,"2023-01-15T22:26:06.965Z"
45,0.41559815,0.89723635,-0.030490723,323,"2023-01-15T22:27:07.527Z"
44,0.8980957,0.34706056,0.32463378,321,"2023-01-15T22:28:08.089Z"
54,0.5574243,0.7223047,0.4205835,319,"2023-01-15T22:29:08.652Z"
46,0.8696655,0.020002441,0.5240918,319,"2023-01-15T22:30:09.214Z"
46,0.61827147,0.6602832,-0.507522,321,"2023-01-15T22:31:09.776Z"
65,0.3626953,0.8995166,0.17901611,320,"2023-01-15T22:32:10.338Z"
49,0.1226709,0.49708498,0.8568799,318,"2023-01-15T22:33:10.901Z"
38,0.13616699,0.52250487,0.83339113,319,"2023-01-15T22:34:11.463Z"
39,0.1377002,0.52420163,0.8318994,319,"2023-01-15T22:35:12.025Z"
45,0.41092774,0.7620923,-0.5211377,319,"2023-01-15T22:36:12.587Z"
37,0.25022948,0.5195703,0.8116186,320,"2023-01-15T22:37:13.149Z"
52,0.74990964,0.6582007,-0.173125,317,"2023-01-15T22:38:13.712Z"
37,0.74859864,0.65255857,-0.19726807,320,"2023-01-15T22:39:14.274Z"
36,0.7502588,0.64843994,-0.20404053,321,"2023-01-15T22:40:14.836Z"
34,0.705437,0.71848387,0.08016601,321,"2023-01-15T22:41:15.398Z"
34,0.7074292,0.6974097,0.18056153,322,"2023-01-15T22:42:15.961Z"
36,0.7297705,0.6924829,-0.1132666,324,"2023-01-15T22:43:16.523Z"
39,0.6430127,0.7770996,-0.015610351,323,"2023-01-15T22:44:17.085Z"
49,0.18285644,0.80447507,0.55556643,321,"2023-01-15T22:45:17.647Z"
40,0.30616212,0.75333494,0.57828367,321,"2023-01-15T22:46:18.209Z"
35,0.34772706,0.7188843,0.5994604,320,"2023-01-15T22:47:18.772Z"
57,0.6406616,0.6422119,0.033935547,321,"2023-01-15T22:48:19.334Z"
64,-0.61336917,0.17789307,0.7410644,320,"2023-01-15T22:49:19.896Z"
34,-0.60835695,0.17513672,0.7462695,323,"2023-01-15T22:50:20.458Z"
36,-0.6048486,0.17502198,0.7502539,325,"2023-01-15T22:51:21.021Z"
38,-0.60478026,0.16337891,0.7529541,328,"2023-01-15T22:52:21.583Z"
32,-0.60429686,0.16204834,0.75460935,330,"2023-01-15T22:53:22.145Z"
33,-0.6030151,0.1313208,0.76184815,332,"2023-01-15T22:54:22.707Z"
33,-0.6034863,0.12702149,0.76231444,333,"2023-01-15T22:55:23.269Z"
35,-0.61304444,0.13992676,0.7525122,335,"2023-01-15T22:56:23.832Z"
35,-0.6094605,0.13879639,0.75631595,336,"2023-01-15T22:57:24.394Z"
33,-0.61057127,0.13608155,0.7555273,337,"2023-01-15T22:58:24.956Z"
33,-0.6107959,0.13535888,0.756521,338,"2023-01-15T22:59:25.519Z"
36,-0.61453855,0.14751221,0.7496167,339,"2023-01-15T23:00:26.081Z"
36,-0.6150952,0.1430835,0.75061035,340,"2023-01-15T23:01:26.715Z"
36,-0.61487794,0.14345215,0.75085694,340,"2023-01-15T23:02:27.277Z"
37,-0.6134717,0.14430664,0.7517871,341,"2023-01-15T23:03:27.839Z"
35,-0.615564,0.14110108,0.7515869,342,"2023-01-15T23:04:28.402Z"
34,-0.61537355,0.13972168,0.75104004,342,"2023-01-15T23:05:28.964Z"
34,-0.6148804,0.1399585,0.7510791,343,"2023-01-15T23:06:29.526Z"
34,-0.6134229,0.1414746,0.75253415,343,"2023-01-15T23:07:30.088Z"
37,-0.61447024,0.14066406,0.7522852,344,"2023-01-15T23:08:30.650Z"
33,-0.6138818,0.14108154,0.75218505,345,"2023-01-15T23:09:31.213Z"
34,-0.613418,0.14035645,0.75198245,345,"2023-01-15T23:10:31.775Z"
34,-0.6130249,0.14080322,0.75375247,346,"2023-01-15T23:11:32.337Z"
36,-0.6154248,0.13740967,0.7524097,346,"2023-01-15T23:12:32.899Z"
34,-0.6154883,0.13472657,0.7513062,347,"2023-01-15T23:13:33.461Z"
35,-0.61503416,0.13433594,0.7530444,347,"2023-01-15T23:14:34.024Z"
34,-0.61536866,0.13433105,0.75309813,347,"2023-01-15T23:15:34.586Z"
34,-0.6138428,0.13508545,0.7541357,348,"2023-01-15T23:16:35.148Z"
35,-0.61473143,0.13303223,0.7525171,348,"2023-01-15T23:17:35.710Z"
36,-0.61324465,0.13565917,0.75520265,348,"2023-01-15T23:18:36.273Z"
37,-0.6135791,0.13427734,0.75408936,349,"2023-01-15T23:19:36.835Z"
35,-0.6121802,0.13527344,0.75488037,349,"2023-01-15T23:20:37.397Z"
35,-0.612854,0.13563232,0.7551245,349,"2023-01-15T23:21:37.959Z"
35,-0.61336917,0.13437256,0.75418943,350,"2023-01-15T23:22:38.533Z"
53,0.6041748,0.36124513,0.7215259,351,"2023-01-15T23:23:39.094Z"
43,0.6113965,0.36072266,0.717417,351,"2023-01-15T23:24:39.657Z"
53,0.6190845,0.23397216,0.7634106,350,"2023-01-15T23:25:40.219Z"
36,0.62081057,0.23201904,0.7623291,350,"2023-01-15T23:26:40.781Z"
34,0.62184817,0.23077881,0.76190186,350,"2023-01-15T23:27:41.344Z"
37,0.62243164,0.22954834,0.7613184,350,"2023-01-15T23:28:41.906Z"
39,0.6408301,0.14653565,0.76926756,350,"2023-01-15T23:29:42.468Z"
37,0.64352053,0.28382325,0.7238476,350,"2023-01-15T23:30:43.031Z"
36,0.6454468,0.30982667,0.7126196,350,"2023-01-15T23:31:43.593Z"
37,0.64527833,0.31126222,0.7117163,349,"2023-01-15T23:32:44.155Z"
39,0.6454468,0.31215087,0.7112231,350,"2023-01-15T23:33:44.717Z"
40,0.6456299,0.31205323,0.7111841,349,"2023-01-15T23:34:45.279Z"
41,0.64565676,0.31307372,0.7097119,349,"2023-01-15T23:35:45.841Z"
43,0.6463672,0.31376952,0.7097266,349,"2023-01-15T23:36:46.404Z"
40,0.6461914,0.3140454,0.70929444,349,"2023-01-15T23:37:46.966Z"
38,0.6456592,0.3145996,0.70939696,349,"2023-01-15T23:38:47.528Z"
39,0.6463721,0.31341797,0.70917726,349,"2023-01-15T23:39:48.090Z"
36,0.6467505,0.3147339,0.70941406,349,"2023-01-15T23:40:48.652Z"
37,0.6468042,0.31366944,0.7088721,350,"2023-01-15T23:41:49.227Z"
39,0.64611816,0.31670654,0.707749,350,"2023-01-15T23:42:49.789Z"
38,0.6463086,0.31761962,0.70747316,350,"2023-01-15T23:43:50.352Z"
40,0.6463745,0.31823486,0.7075073,350,"2023-01-15T23:44:50.914Z"
43,0.6470996,0.31686035,0.7065015,350,"2023-01-15T23:45:51.476Z"
41,0.64732176,0.31689942,0.70684814,350,"2023-01-15T23:46:52.038Z"
42,0.6473682,0.31851318,0.7066504,350,"2023-01-15T23:47:52.600Z"
43,0.6470996,0.3185083,0.7067969,350,"2023-01-15T23:48:53.163Z"
36,0.6479053,0.31789795,0.7058936,350,"2023-01-15T23:49:53.725Z"
38,0.64747804,0.31556883,0.70722413,350,"2023-01-15T23:50:54.287Z"
41,0.64674073,0.31705812,0.7076099,350,"2023-01-15T23:51:54.849Z"
56,0.55547607,-0.6319629,0.57464844,350,"2023-01-15T23:52:55.411Z"
37,0.5532959,-0.62393796,0.58466065,350,"2023-01-15T23:53:55.974Z"
37,0.46560302,-0.83333254,0.3642578,350,"2023-01-15T23:54:56.536Z"
40,0.46274903,-0.8276147,0.38123047,350,"2023-01-15T23:55:57.098Z"
39,0.43766603,-0.87107664,0.30820802,350,"2023-01-15T23:56:57.660Z"
38,0.5328638,-0.29619384,0.80922854,351,"2023-01-15T23:57:58.222Z"
39,0.53300536,-0.29709962,0.808811,351,"2023-01-15T23:58:58.785Z"
37,0.61288816,-0.53382325,0.6141699,350,"2023-01-15T23:59:59.347Z"
37,0.61254394,-0.5338355,0.6146875,350,"2023-01-16T00:00:00.308Z"
35,0.600144,-0.26614746,0.7734644,351,"2023-01-16T00:01:00.883Z"
37,0.60453856,-0.33560547,0.7439014,351,"2023-01-16T00:02:01.445Z"
37,0.60299563,-0.32946044,0.74762696,352,"2023-01-16T00:03:02.007Z"
37,0.60493165,-0.33591798,0.74281496,352,"2023-01-16T00:04:02.569Z"
36,0.4671875,-0.26247558,0.8579761,352,"2023-01-16T00:05:03.132Z"
43,0.5386963,-0.27953613,0.8103076,352,"2023-01-16T00:06:03.694Z"
38,0.5406958,-0.27482423,0.8120483,352,"2023-01-16T00:07:04.256Z"
40,0.5506177,-0.2472754,0.81296873,352,"2023-01-16T00:08:04.818Z"
40,0.550564,-0.24785401,0.8134082,352,"2023-01-16T00:09:05.380Z"
38,0.55096436,-0.24859619,0.8129346,352,"2023-01-16T00:10:05.943Z"
40,0.54989505,-0.25191894,0.8131787,352,"2023-01-16T00:11:06.505Z"
37,0.55565184,-0.24085937,0.8122583,352,"2023-01-16T00:12:07.067Z"
40,0.5607202,-0.20047364,0.81870604,353,"2023-01-16T00:13:07.629Z"
38,0.55846924,-0.2094629,0.81811523,353,"2023-01-16T00:14:08.191Z"
39,0.5590967,-0.20888184,0.8180811,353,"2023-01-16T00:15:08.754Z"
36,0.560603,-0.20722412,0.81726074,353,"2023-01-16T00:16:09.316Z"
39,0.5585693,-0.20941895,0.8179883,353,"2023-01-16T00:17:09.878Z"
41,0.558645,-0.21048827,0.81786865,353,"2023-01-16T00:18:10.440Z"
45,0.64652586,-0.04590332,0.7786865,353,"2023-01-16T00:19:11.002Z"
38,0.64485353,-0.04314209,0.77991456,353,"2023-01-16T00:20:11.577Z"
37,0.64809084,-0.10402588,0.77283937,353,"2023-01-16T00:21:12.139Z"
39,0.6446802,-0.4963086,0.61394775,352,"2023-01-16T00:22:12.701Z"
39,0.65049314,-0.43174562,0.6540405,352,"2023-01-16T00:23:13.264Z"
37,0.6495166,-0.43019044,0.655979,352,"2023-01-16T00:24:13.826Z"
37,0.65448976,-0.402666,0.6679712,352,"2023-01-16T00:25:14.388Z"
38,0.65462404,-0.4028467,0.66831297,352,"2023-01-16T00:26:14.950Z"
38,0.65457034,-0.40291992,0.6683154,352,"2023-01-16T00:27:15.512Z"
37,0.6539429,-0.40288818,0.6684131,352,"2023-01-16T00:28:16.075Z"
37,0.65367186,-0.40273193,0.66871095,352,"2023-01-16T00:29:16.637Z"
39,0.6534253,-0.4029834,0.6684546,352,"2023-01-16T00:30:17.199Z"
41,0.6528076,-0.40225342,0.6701221,352,"2023-01-16T00:31:17.761Z"
37,0.68158203,-0.31892335,0.685415,352,"2023-01-16T00:32:18.323Z"
38,0.68138427,-0.31874025,0.6853589,352,"2023-01-16T00:33:18.886Z"
38,0.6810303,-0.3189038,0.68600583,352,"2023-01-16T00:34:19.448Z"
38,0.681106,-0.31857666,0.68593264,352,"2023-01-16T00:35:20.010Z"
38,0.6804248,-0.31833008,0.6856885,352,"2023-01-16T00:36:20.572Z"
38,0.68039304,-0.3185327,0.6861011,352,"2023-01-16T00:37:21.135Z"
39,0.68063474,-0.31798583,0.6865576,352,"2023-01-16T00:38:21.697Z"
37,0.6799829,-0.3184546,0.6864844,353,"2023-01-16T00:39:22.271Z"
37,0.67998046,-0.31798095,0.68623537,353,"2023-01-16T00:40:22.834Z"
36,0.6796655,-0.31875977,0.68625,352,"2023-01-16T00:41:23.396Z"
37,0.6802197,-0.31755126,0.68690675,353,"2023-01-16T00:42:23.958Z"
38,0.6803076,-0.31457764,0.6881714,352,"2023-01-16T00:43:24.520Z"
35,0.68014646,-0.31501952,0.68800294,352,"2023-01-16T00:44:25.083Z"
38,0.6804785,-0.3156885,0.687666,352,"2023-01-16T00:45:25.645Z"
37,0.68007326,-0.31539795,0.6882544,352,"2023-01-16T00:46:26.207Z"
57,0.32473388,-0.96598876,0.07526367,352,"2023-01-16T00:47:26.769Z"
33,0.33338135,-0.96518064,-0.018469239,351,"2023-01-16T00:48:27.331Z"
41,0.33486328,-0.9648291,-0.016269531,351,"2023-01-16T00:49:27.894Z"
42,0.644873,0.47621825,0.20489013,350,"2023-01-16T00:50:28.456Z"
38,0.61881834,0.3387036,0.7207666,350,"2023-01-16T00:51:29.018Z"
39,0.614563,0.3372632,0.7245874,350,"2023-01-16T00:52:29.580Z"
37,0.62293947,0.32333985,0.7263428,350,"2023-01-16T00:53:30.142Z"
34,0.58420897,0.11902832,0.81484133,350,"2023-01-16T00:54:30.705Z"
36,0.58374023,0.11878418,0.814436,351,"2023-01-16T00:55:31.267Z"
37,0.5879468,0.11056152,0.81325686,351,"2023-01-16T00:56:31.829Z"
41,0.5875073,0.11091797,0.81285644,351,"2023-01-16T00:57:32.391Z"
37,0.58654785,0.1113086,0.8137256,352,"2023-01-16T00:58:32.961Z"
42,0.5865674,0.11130371,0.81475097,352,"2023-01-16T00:59:33.528Z"
38,0.6102515,-0.063308105,0.80569094,352,"2023-01-16T01:00:34.090Z"
43,0.6097632,-0.0607666,0.805979,352,"2023-01-16T01:01:34.652Z"
39,0.60814697,-0.06017578,0.8066016,352,"2023-01-16T01:02:35.215Z"
43,0.6076929,-0.06076172,0.8067993,352,"2023-01-16T01:03:35.776Z"
39,0.6080737,-0.058356933,0.8070996,352,"2023-01-16T01:04:36.339Z"
43,0.60761964,-0.058146972,0.8073608,352,"2023-01-16T01:05:36.901Z"
41,0.60737795,-0.058583986,0.80723876,352,"2023-01-16T01:06:37.463Z"
39,0.60720706,-0.058200683,0.8073608,352,"2023-01-16T01:07:38.026Z"
43,0.607417,-0.057553712,0.8077539,352,"2023-01-16T01:08:38.588Z"
46,0.60710937,-0.058671877,0.80725586,353,"2023-01-16T01:09:39.150Z"
42,0.60719484,-0.058764648,0.8075659,353,"2023-01-16T01:10:39.712Z"
45,0.60763913,-0.058481444,0.80721194,353,"2023-01-16T01:11:40.274Z"
43,0.60725343,-0.058017578,0.80735594,353,"2023-01-16T01:12:40.837Z"
46,0.6076123,-0.05748291,0.80758786,353,"2023-01-16T01:13:41.398Z"
42,0.60743165,-0.057128906,0.8074634,353,"2023-01-16T01:14:41.961Z"
59,0.5645386,0.15909667,0.8205078,353,"2023-01-16T01:15:42.523Z"
38,0.5645093,0.15661621,0.8211084,353,"2023-01-16T01:16:43.085Z"
44,0.56359863,0.15595703,0.82149416,353,"2023-01-16T01:17:43.656Z"
40,0.56271726,0.15629639,0.82155764,354,"2023-01-16T01:18:44.222Z"
42,0.5631128,0.15709229,0.8210156,353,"2023-01-16T01:19:44.784Z"
46,0.5846851,0.10855225,0.8158911,353,"2023-01-16T01:20:45.347Z"
45,-0.48223388,0.18531983,0.83622557,353,"2023-01-16T01:21:45.909Z"
40,-0.46822998,0.20145507,0.84033936,353,"2023-01-16T01:22:46.471Z"
40,-0.4680542,0.20368165,0.8401099,353,"2023-01-16T01:23:47.033Z"
39,-0.472229,0.24418212,0.82637453,353,"2023-01-16T01:24:47.595Z"
40,-0.47396484,0.24153809,0.82656497,353,"2023-01-16T01:25:48.158Z"
41,-0.46410644,0.13939941,0.8560352,353,"2023-01-16T01:26:48.720Z"
44,-0.46009523,0.2708789,0.8250537,354,"2023-01-16T01:27:49.282Z"
49,-0.5646191,0.18685547,0.7640454,354,"2023-01-16T01:28:49.844Z"
38,-0.54992676,0.2254541,0.7809448,354,"2023-01-16T01:29:50.406Z"
42,-0.55001223,0.22466065,0.781062,354,"2023-01-16T01:30:50.969Z"
41,-0.5591602,0.21495606,0.77750975,354,"2023-01-16T01:31:51.531Z"
38,-0.521438,0.25078613,0.79406494,354,"2023-01-16T01:32:52.093Z"
39,-0.521814,0.25090575,0.7923486,354,"2023-01-16T01:33:52.655Z"
35,-0.5245947,0.24682617,0.7919605,354,"2023-01-16T01:34:53.218Z"
39,-0.51944333,0.2530493,0.7941699,354,"2023-01-16T01:35:53.780Z"
36,-0.5296948,0.24844483,0.788186,354,"2023-01-16T01:36:54.350Z"
37,-0.52925783,0.24886718,0.7883667,355,"2023-01-16T01:37:54.917Z"
36,-0.5209375,0.25678468,0.79156005,354,"2023-01-16T01:38:55.479Z"
36,-0.5220606,0.25637695,0.79176027,355,"2023-01-16T01:39:56.041Z"
34,-0.5236255,0.25363526,0.79109377,354,"2023-01-16T01:40:56.603Z"
41,-0.3303296,-0.30097413,0.88597655,353,"2023-01-16T01:41:57.166Z"
38,-0.33031982,-0.30022705,0.8863281,353,"2023-01-16T01:42:57.728Z"
41,-0.33017823,-0.29992676,0.88625,354,"2023-01-16T01:43:58.290Z"
38,-0.33719972,-0.29986572,0.88398683,354,"2023-01-16T01:44:58.852Z"
37,-0.32937256,-0.2972412,0.8875708,354,"2023-01-16T01:45:59.414Z"
36,-0.3280127,-0.29645997,0.8887158,354,"2023-01-16T01:46:59.977Z"
37,-0.3348999,-0.29866943,0.8849902,354,"2023-01-16T01:48:00.539Z"
39,-0.32798097,-0.29586425,0.8890015,354,"2023-01-16T01:49:01.101Z"
37,-0.32462648,-0.29473144,0.8902368,355,"2023-01-16T01:50:01.663Z"
36,-0.32410157,-0.29364014,0.8906738,355,"2023-01-16T01:51:02.225Z"
37,-0.3255249,-0.29337892,0.8907373,355,"2023-01-16T01:52:02.787Z"
37,-0.3236914,-0.2925708,0.89136964,355,"2023-01-16T01:53:03.350Z"
37,-0.32330078,-0.29186523,0.8913281,355,"2023-01-16T01:54:03.912Z"
38,-0.32826415,-0.29284424,0.88945067,355,"2023-01-16T01:55:04.474Z"
37,-0.33012694,-0.2930835,0.8885181,355,"2023-01-16T01:56:05.044Z"
39,-0.32051027,-0.28855714,0.8940918,355,"2023-01-16T01:57:05.611Z"
36,-0.3208716,-0.2894287,0.8930933,355,"2023-01-16T01:58:06.173Z"
40,-0.32747802,-0.28983155,0.8904004,355,"2023-01-16T01:59:06.735Z"
35,-0.32286865,-0.2903125,0.89248776,355,"2023-01-16T02:00:07.298Z"
37,-0.3223633,-0.2897339,0.89283204,355,"2023-01-16T02:01:07.845Z"
37,-0.57768065,0.41986084,0.671123,355,"2023-01-16T02:02:08.407Z"
41,-0.58198977,0.40645263,0.67572755,354,"2023-01-16T02:03:08.969Z"
38,-0.5855225,0.39728516,0.67805666,354,"2023-01-16T02:04:09.531Z"
37,-0.5953247,0.38084716,0.67898196,354,"2023-01-16T02:05:10.079Z"
35,-0.595271,0.2890039,0.72304446,354,"2023-01-16T02:06:10.641Z"
53,0.5294434,0.4147461,0.74869627,354,"2023-01-16T02:07:11.203Z"
37,0.5260669,0.408833,0.75397706,355,"2023-01-16T02:08:11.766Z"
37,0.63121337,-0.032006837,0.7911011,355,"2023-01-16T02:09:12.328Z"
35,0.63420165,-0.039262697,0.78901124,355,"2023-01-16T02:10:12.890Z"
35,0.63476074,-0.03979248,0.7881104,355,"2023-01-16T02:11:13.452Z"
36,0.6346509,-0.041086424,0.7880835,355,"2023-01-16T02:12:14.014Z"
37,0.63640136,-0.040283203,0.7869287,355,"2023-01-16T02:13:14.577Z"
38,0.6351563,-0.04067383,0.78770995,355,"2023-01-16T02:14:15.139Z"
36,0.63460207,-0.041237794,0.7881958,355,"2023-01-16T02:15:15.709Z"
37,0.6361133,-0.04123535,0.78746337,356,"2023-01-16T02:16:16.276Z"
38,0.6352222,-0.041982424,0.7879419,356,"2023-01-16T02:17:16.838Z"
37,0.63541746,-0.041694336,0.7875708,355,"2023-01-16T02:18:17.400Z"
37,0.6355908,-0.041970216,0.787395,355,"2023-01-16T02:19:17.962Z"
36,0.6355957,-0.042585447,0.7877393,355,"2023-01-16T02:20:18.524Z"
38,0.635957,-0.041989747,0.7871045,355,"2023-01-16T02:21:19.086Z"
37,0.63489014,-0.042111818,0.78821045,355,"2023-01-16T02:22:19.649Z"
38,0.6346875,-0.043286134,0.7891089,355,"2023-01-16T02:23:20.211Z"
38,0.63565916,-0.042148437,0.7870898,356,"2023-01-16T02:24:20.773Z"
35,0.63389647,-0.04279541,0.7885669,355,"2023-01-16T02:25:21.335Z"
38,0.6340649,-0.04356201,0.78881836,355,"2023-01-16T02:26:21.883Z"
38,0.6343018,-0.04417969,0.7886548,355,"2023-01-16T02:27:22.445Z"
37,0.6343994,-0.04392578,0.78838134,355,"2023-01-16T02:28:23.007Z"
37,0.6341797,-0.044331055,0.7885669,355,"2023-01-16T02:29:23.569Z"
38,0.63475096,-0.044541016,0.78834474,355,"2023-01-16T02:30:24.131Z"
37,0.634292,-0.044733886,0.7876587,355,"2023-01-16T02:31:24.694Z"
37,0.63475096,-0.044099122,0.7878711,356,"2023-01-16T02:32:25.256Z"
38,0.6350073,-0.044558104,0.7879175,355,"2023-01-16T02:33:25.818Z"
38,0.6341894,-0.04479492,0.78829104,356,"2023-01-16T02:34:26.388Z"
38,0.63440675,-0.045478515,0.7885352,356,"2023-01-16T02:35:26.955Z"
38,0.63434815,-0.045354005,0.78837645,356,"2023-01-16T02:36:27.517Z"
39,0.63525635,-0.044750977,0.787771,356,"2023-01-16T02:37:28.079Z"
40,0.63412595,-0.045612793,0.78885496,356,"2023-01-16T02:38:28.642Z"
38,0.6343628,-0.045583498,0.7890356,356,"2023-01-16T02:39:29.204Z"
37,0.63482666,-0.045803223,0.78815675,356,"2023-01-16T02:40:29.766Z"
61,0.62286377,-0.56574464,0.5759692,356,"2023-01-16T02:41:30.328Z"
41,0.3397412,-0.9633472,0.03696045,355,"2023-01-16T02:42:30.890Z"
46,0.61406493,0.016254883,0.80370605,353,"2023-01-16T02:43:31.453Z"
43,0.6125684,0.011806641,0.8045996,353,"2023-01-16T02:44:32.015Z"
39,0.6122339,0.013149414,0.8049707,354,"2023-01-16T02:45:32.577Z"
38,0.61133546,0.013813477,0.805542,354,"2023-01-16T02:46:33.139Z"
38,0.6106714,0.013664551,0.8058643,354,"2023-01-16T02:47:33.701Z"
54,0.6173169,-0.13029052,0.7925244,354,"2023-01-16T02:48:34.263Z"
36,0.6152368,-0.12419434,0.7956909,354,"2023-01-16T02:49:34.826Z"
42,0.61514163,-0.12273193,0.79535645,354,"2023-01-16T02:50:35.388Z"
62,-0.45611572,0.14446533,0.8595508,354,"2023-01-16T02:51:35.950Z"
39,-0.45014405,0.14874756,0.86233157,354,"2023-01-16T02:52:36.512Z"
38,-0.447937,0.14898926,0.8634766,355,"2023-01-16T02:53:37.083Z"
46,-0.44583252,0.14493896,0.86541015,356,"2023-01-16T02:54:37.649Z"
43,-0.4463745,0.1398706,0.8657739,356,"2023-01-16T02:55:38.211Z"
44,-0.44687256,0.13745362,0.8663794,357,"2023-01-16T02:56:38.774Z"
42,-0.44606933,0.1381421,0.86707276,357,"2023-01-16T02:57:39.336Z"
41,-0.44562256,0.13717285,0.86718506,357,"2023-01-16T02:58:39.898Z"
63,0.6729028,0.12862548,0.7454346,357,"2023-01-16T02:59:40.460Z"
41,0.6713306,0.12788819,0.74793214,358,"2023-01-16T03:00:41.022Z"
42,0.67128175,0.12583251,0.74716794,358,"2023-01-16T03:01:41.585Z"
66,-0.69202393,-0.02845703,0.69558835,357,"2023-01-16T03:02:42.146Z"
40,-0.67867434,-0.24376953,0.67128664,357,"2023-01-16T03:03:42.709Z"
39,-0.6599487,-0.49820802,0.5441626,357,"2023-01-16T03:04:43.271Z"
39,-0.6571924,-0.49530518,0.5504004,357,"2023-01-16T03:05:43.833Z"
37,-0.65767336,-0.4941455,0.5513623,356,"2023-01-16T03:06:44.396Z"
39,-0.67326415,-0.5154248,0.51113284,356,"2023-01-16T03:07:44.958Z"
40,-0.6695996,-0.5118579,0.5203467,356,"2023-01-16T03:08:45.520Z"
36,-0.6725366,-0.51457274,0.51234376,355,"2023-01-16T03:09:46.082Z"
46,-0.6705078,-0.51225096,0.518103,355,"2023-01-16T03:10:46.645Z"
40,-0.67401856,-0.5153394,0.5113623,355,"2023-01-16T03:11:47.207Z"
37,-0.6697192,-0.5119165,0.52071536,355,"2023-01-16T03:12:47.777Z"
46,-0.30279052,0.17904052,0.8966358,355,"2023-01-16T03:13:48.344Z"
37,-0.60703367,-0.056916505,0.77120364,354,"2023-01-16T03:14:48.906Z"
37,-0.6200757,-0.017539062,0.76187253,353,"2023-01-16T03:15:49.468Z"
35,-0.62234133,-0.017839355,0.7589331,353,"2023-01-16T03:16:50.030Z"
37,-0.6202881,-0.0188208,0.76169187,352,"2023-01-16T03:17:50.593Z"
37,-0.6225317,-0.01890625,0.75934815,352,"2023-01-16T03:18:51.155Z"
37,-0.6195679,-0.021420898,0.7623169,351,"2023-01-16T03:19:51.717Z"
37,-0.6206958,-0.02058838,0.76075196,351,"2023-01-16T03:20:52.279Z"
37,-0.6206543,-0.020729981,0.76100343,351,"2023-01-16T03:21:52.841Z"
38,-0.6208862,-0.021296388,0.7605884,351,"2023-01-16T03:22:53.403Z"
37,-0.62311524,-0.020625,0.7586987,351,"2023-01-16T03:23:53.966Z"
39,-0.62257814,-0.021330567,0.75901854,351,"2023-01-16T03:24:54.528Z"
37,-0.620752,-0.022878418,0.7603784,350,"2023-01-16T03:25:55.090Z"
38,-0.62120116,-0.024050293,0.7604126,351,"2023-01-16T03:26:55.652Z"
37,-0.6238745,-0.023574218,0.75818115,350,"2023-01-16T03:27:56.214Z"
37,-0.60634035,-0.041137695,0.77236575,350,"2023-01-16T03:28:56.777Z"
40,-0.38783205,0.7927026,0.43696046,349,"2023-01-16T03:29:57.339Z"
40,-0.38546142,0.7954346,0.43291014,349,"2023-01-16T03:30:57.901Z"
36,-0.3821289,0.7953125,0.4367749,349,"2023-01-16T03:31:58.463Z"
38,-0.38014892,0.79635984,0.4361255,350,"2023-01-16T03:32:59.038Z"
44,-0.3797876,0.7994873,0.43097168,349,"2023-01-16T03:33:59.600Z"
38,-0.3770166,0.79836184,0.43555665,349,"2023-01-16T03:35:00.162Z"
37,-0.36028564,0.7865332,0.46881837,349,"2023-01-16T03:36:00.725Z"
38,-0.3595044,0.78721434,0.46937987,349,"2023-01-16T03:37:01.287Z"
37,-0.358916,0.7872021,0.46969482,349,"2023-01-16T03:38:01.849Z"
39,-0.35931885,0.7925146,0.45976076,349,"2023-01-16T03:39:02.411Z"
38,-0.36046386,0.7935669,0.45809814,348,"2023-01-16T03:40:02.973Z"
38,-0.36010742,0.79394287,0.45770508,348,"2023-01-16T03:41:03.536Z"
36,-0.4873462,0.6441138,0.555896,348,"2023-01-16T03:42:04.098Z"
37,-0.48644775,0.64173585,0.5604346,348,"2023-01-16T03:43:04.660Z"
38,-0.48801515,0.6412427,0.55971193,348,"2023-01-16T03:44:05.222Z"
38,-0.48435548,0.63690674,0.5667041,348,"2023-01-16T03:45:05.784Z"
39,-0.48662108,0.63673586,0.56478274,348,"2023-01-16T03:46:06.347Z"
37,-0.47730225,0.53624755,0.6683911,348,"2023-01-16T03:47:06.909Z"
38,-0.47602785,0.53282225,0.6721265,348,"2023-01-16T03:48:07.471Z"
39,-0.47726807,0.53193605,0.6726611,348,"2023-01-16T03:49:08.033Z"
38,-0.478667,0.53072757,0.672085,348,"2023-01-16T03:50:08.595Z"
38,-0.4797754,0.5313379,0.67115235,349,"2023-01-16T03:51:09.158Z"
39,-0.47691894,0.5257275,0.676897,349,"2023-01-16T03:52:09.732Z"
39,-0.47675294,0.52524656,0.67771727,349,"2023-01-16T03:53:10.294Z"
39,-0.47707275,0.52353513,0.67946535,349,"2023-01-16T03:54:10.857Z"
36,-0.47760987,0.5216968,0.68009275,349,"2023-01-16T03:55:11.419Z"
37,-0.4797876,0.52325684,0.6776172,349,"2023-01-16T03:56:11.981Z"
37,-0.48046386,0.52219236,0.677085,349,"2023-01-16T03:57:12.543Z"
38,-0.47817138,0.51846194,0.68197024,349,"2023-01-16T03:58:13.105Z"
39,-0.4793628,0.51894534,0.68141115,349,"2023-01-16T03:59:13.668Z"
39,-0.47831544,0.51854,0.68184084,349,"2023-01-16T04:00:14.230Z"
55,-0.5728247,-0.20969239,0.77467775,350,"2023-01-16T04:01:14.792Z"
41,-0.5725122,-0.21380615,0.77255857,350,"2023-01-16T04:02:15.354Z"
39,-0.57206786,-0.20878418,0.7740918,350,"2023-01-16T04:03:15.917Z"
59,0.6474805,0.06445557,0.77430665,351,"2023-01-16T04:04:16.479Z"
38,0.6447803,0.06807617,0.7766162,351,"2023-01-16T04:05:17.041Z"
42,0.6434009,0.06695557,0.7781641,351,"2023-01-16T04:06:17.603Z"
39,0.6440771,0.06604004,0.7781372,352,"2023-01-16T04:07:18.165Z"
41,0.64330566,0.06547852,0.7789429,352,"2023-01-16T04:08:18.728Z"
40,0.64306885,0.06451904,0.77854735,352,"2023-01-16T04:09:19.290Z"
43,0.6423828,0.06441406,0.77946043,352,"2023-01-16T04:10:19.852Z"
44,0.64135987,0.062666014,0.780459,353,"2023-01-16T04:11:20.427Z"
46,0.6404785,0.06307373,0.7803686,352,"2023-01-16T04:12:20.989Z"
41,0.64043945,0.06394775,0.780481,352,"2023-01-16T04:13:21.551Z"
44,0.6407471,0.062182616,0.7804663,353,"2023-01-16T04:14:22.113Z"
42,0.6406152,0.061938476,0.78061765,353,"2023-01-16T04:15:22.675Z"
43,0.64031494,0.06213379,0.78108644,353,"2023-01-16T04:16:23.238Z"
39,0.6399048,0.062331542,0.7809497,353,"2023-01-16T04:17:23.800Z"
44,0.64038575,0.0633374,0.7811377,353,"2023-01-16T04:18:24.362Z"
43,0.6395337,0.06403076,0.7807031,353,"2023-01-16T04:19:24.924Z"
41,0.63949466,0.06259522,0.7821265,353,"2023-01-16T04:20:25.486Z"
43,0.6395825,0.061594237,0.78161865,353,"2023-01-16T04:21:26.049Z"
61,0.63161623,-0.7989014,0.102841794,353,"2023-01-16T04:22:26.611Z"
35,-0.08253418,-0.50439453,-0.8728052,350,"2023-01-16T04:23:27.173Z"
40,-0.08328614,-0.5086206,-0.8708765,346,"2023-01-16T04:24:27.735Z"
37,-0.08171875,-0.5118579,-0.86884034,344,"2023-01-16T04:25:28.297Z"
40,-0.082128905,-0.51087403,-0.86995363,342,"2023-01-16T04:26:28.860Z"
42,-0.08130371,-0.5098389,-0.87040037,342,"2023-01-16T04:27:29.422Z"
39,-0.08130127,-0.51110595,-0.8701294,341,"2023-01-16T04:28:29.984Z"
36,-0.055705566,-0.43496338,-0.912478,344,"2023-01-16T04:29:30.546Z"
45,-0.0532666,-0.45156005,-0.90497804,345,"2023-01-16T04:30:31.121Z"
39,-0.0521875,-0.45430908,-0.90467286,345,"2023-01-16T04:31:31.683Z"
39,-0.05158203,-0.45358887,-0.9047827,345,"2023-01-16T04:32:32.245Z"
42,-0.05074463,-0.45396972,-0.9040234,345,"2023-01-16T04:33:32.808Z"
43,-0.04690918,-0.46094972,-0.9014258,345,"2023-01-16T04:34:33.370Z"
45,-0.047780763,-0.4610791,-0.9012915,345,"2023-01-16T04:35:33.932Z"
43,-0.04807861,-0.4607959,-0.90125245,345,"2023-01-16T04:36:34.494Z"
60,0.6374463,-0.020549316,0.7855151,345,"2023-01-16T04:37:35.056Z"
36,0.6329199,-0.030622559,0.78909665,346,"2023-01-16T04:38:35.619Z"
38,0.6325806,-0.030095214,0.78921145,346,"2023-01-16T04:39:36.181Z"
35,0.63242674,-0.03493164,0.7897925,346,"2023-01-16T04:40:36.743Z"
40,0.6317432,-0.035898436,0.7897754,347,"2023-01-16T04:41:37.305Z"
37,0.63181394,-0.03715332,0.7895044,347,"2023-01-16T04:42:37.867Z"
37,0.6306738,-0.03720703,0.7908325,348,"2023-01-16T04:43:38.430Z"
42,0.6309692,-0.037512206,0.79081297,348,"2023-01-16T04:44:38.992Z"
40,0.6316284,-0.036467284,0.7898315,348,"2023-01-16T04:45:39.554Z"
44,0.63087404,-0.036606446,0.79045653,349,"2023-01-16T04:46:40.116Z"
42,0.63050294,-0.03661133,0.791084,349,"2023-01-16T04:47:40.678Z"
42,0.6318604,-0.03684082,0.7904419,350,"2023-01-16T04:48:41.241Z"
44,0.63223875,-0.03658203,0.790271,350,"2023-01-16T04:49:41.815Z"
50,0.6306494,-0.036774904,0.791687,350,"2023-01-16T04:50:42.377Z"
41,0.6322876,-0.037033692,0.7898047,350,"2023-01-16T04:51:42.940Z"
38,0.6302905,-0.037556153,0.79147947,350,"2023-01-16T04:52:43.502Z"
54,0.016801758,-1.0124584,-0.082490236,350,"2023-01-16T04:53:44.064Z"
36,0.030388184,-1.0126075,-0.08063232,346,"2023-01-16T04:54:44.626Z"
38,0.031513672,-1.0119995,-0.082722165,343,"2023-01-16T04:55:45.174Z"
40,0.0347876,-1.0123364,-0.08034179,340,"2023-01-16T04:56:45.736Z"
39,0.03600342,-1.0116968,-0.08298096,338,"2023-01-16T04:57:46.298Z"
39,0.036313478,-1.0120484,-0.084233396,335,"2023-01-16T04:58:46.860Z"
36,0.03718994,-1.0121851,-0.08484131,334,"2023-01-16T04:59:47.422Z"
56,-0.09347412,1.0340772,0.09934326,338,"2023-01-16T05:00:47.985Z"
76,-0.09370606,0.62676024,-0.76717776,335,"2023-01-16T05:01:48.547Z"
74,-0.7838355,0.587981,-0.11150391,332,"2023-01-16T05:02:49.109Z"
77,-0.18767822,0.8472974,0.15028809,331,"2023-01-16T05:03:49.671Z"
67,0.21746582,0.9710034,0.1202832,327,"2023-01-16T05:04:50.233Z"
57,0.077009276,0.99144286,0.038955078,323,"2023-01-16T05:05:50.796Z"
58,0.06630371,0.9915649,-0.09557373,317,"2023-01-16T05:06:51.358Z"
73,0.7307251,-0.6839575,0.06817871,323,"2023-01-16T05:07:51.905Z"
66,0.029177247,-1.0155908,-0.030090332,316,"2023-01-16T05:08:52.468Z"
40,0.029975586,-1.0154004,-0.029396974,315,"2023-01-16T05:09:53.030Z"
38,0.030664062,-1.0154248,-0.029655762,314,"2023-01-16T05:10:53.592Z"
37,0.031586915,-1.0157739,-0.030698242,315,"2023-01-16T05:11:54.154Z"
38,0.033217773,-1.0153296,-0.032927245,316,"2023-01-16T05:12:54.716Z"
39,0.033825684,-1.0152856,-0.034191895,318,"2023-01-16T05:13:55.279Z"
39,0.0357666,-1.015376,-0.03562256,318,"2023-01-16T05:14:55.841Z"
37,0.048376463,-1.0148047,0.023632813,320,"2023-01-16T05:15:56.403Z"
35,0.04805176,-1.0152637,0.020297851,321,"2023-01-16T05:16:56.965Z"
38,0.04839844,-1.0153052,0.019511718,321,"2023-01-16T05:17:57.528Z"
34,0.048708495,-1.0154321,0.019030761,321,"2023-01-16T05:18:58.090Z"
37,0.053898927,-1.0156054,0.016208496,321,"2023-01-16T05:19:58.652Z"
38,0.048271485,-1.0153979,0.014084472,322,"2023-01-16T05:20:59.214Z"
35,0.51989746,-0.5090015,0.7076099,325,"2023-01-16T05:21:59.777Z"
36,0.5207642,-0.504104,0.71080565,327,"2023-01-16T05:23:00.339Z"
37,0.51865965,-0.5053784,0.71166503,329,"2023-01-16T05:24:00.901Z"
36,0.51583254,-0.50184816,0.7163965,332,"2023-01-16T05:25:01.463Z"
37,0.5173193,-0.50048584,0.7161963,334,"2023-01-16T05:26:02.025Z"
35,0.5194629,-0.49920166,0.71558595,335,"2023-01-16T05:27:02.588Z"
37,0.5173242,-0.49953857,0.7174097,337,"2023-01-16T05:28:03.150Z"
39,0.5464331,-0.47006592,0.715647,338,"2023-01-16T05:29:03.697Z"
37,0.5429761,-0.46602538,0.72042483,339,"2023-01-16T05:30:04.259Z"
40,0.54296386,-0.46389648,0.72226316,340,"2023-01-16T05:31:04.822Z"
38,0.53736573,-0.46029052,0.7286328,341,"2023-01-16T05:32:05.384Z"
38,0.53752685,-0.45926514,0.7286328,341,"2023-01-16T05:33:05.931Z"
39,0.53823245,-0.45398927,0.73189944,342,"2023-01-16T05:34:06.493Z"
38,0.5394385,-0.45195556,0.7316431,342,"2023-01-16T05:35:07.056Z"
40,0.5452075,-0.4421582,0.7343286,343,"2023-01-16T05:36:07.618Z"
39,0.5448267,-0.44183838,0.7342578,344,"2023-01-16T05:37:08.180Z"
55,0.566958,-0.60487306,0.59208494,342,"2023-01-16T05:38:08.742Z"
38,0.5689624,-0.59734863,0.59736085,342,"2023-01-16T05:39:09.304Z"
49,-0.57410645,-0.583689,0.5604614,342,"2023-01-16T05:40:09.867Z"
37,-0.56797606,-0.59480226,0.5562451,342,"2023-01-16T05:41:10.429Z"
37,-0.56573486,-0.5964453,0.55715334,343,"2023-01-16T05:42:11.004Z"
40,-0.56981444,-0.5969287,0.5522339,344,"2023-01-16T05:43:11.551Z"
43,-0.56765383,-0.5973999,0.5539844,345,"2023-01-16T05:44:12.113Z"
37,-0.5650879,-0.59684813,0.55804443,346,"2023-01-16T05:45:12.675Z"
38,-0.5665454,-0.5974536,0.5562524,347,"2023-01-16T05:46:13.238Z"
39,-0.5650122,-0.5980884,0.55586183,347,"2023-01-16T05:47:13.800Z"
36,-0.5625439,-0.59910154,0.55813235,348,"2023-01-16T05:48:14.362Z"
39,-0.5647681,-0.5988379,0.5553418,348,"2023-01-16T05:49:14.924Z"
41,-0.56204104,-0.60052246,0.5570166,349,"2023-01-16T05:50:15.486Z"
39,-0.5626562,-0.6020459,0.5542798,349,"2023-01-16T05:51:16.049Z"
56,-0.2408374,-0.07067871,0.9587793,350,"2023-01-16T05:52:16.611Z"
45,-0.23877929,-0.0779248,0.9590503,350,"2023-01-16T05:53:17.173Z"
38,-0.23939453,-0.080783695,0.9588501,350,"2023-01-16T05:54:17.735Z"
41,-0.23943847,-0.08241455,0.9588501,350,"2023-01-16T05:55:18.297Z"
48,-0.24030517,-0.084492184,0.957771,351,"2023-01-16T05:56:18.860Z"
52,-0.6237793,0.2821167,0.7007715,350,"2023-01-16T05:57:19.422Z"
39,-0.6196826,0.2985742,0.697876,351,"2023-01-16T05:58:19.984Z"
36,-0.61996096,0.29885986,0.69729495,351,"2023-01-16T05:59:20.546Z"
52,-0.6490625,-0.66028565,0.36443847,351,"2023-01-16T06:00:21.108Z"
42,-0.64664304,-0.6605518,0.3662085,351,"2023-01-16T06:01:21.683Z"
38,-0.6484473,-0.6615039,0.36186767,351,"2023-01-16T06:02:22.245Z"
46,-0.64640623,-0.6617993,0.36528563,351,"2023-01-16T06:03:22.807Z"
37,-0.6525073,-0.6597656,0.35798585,350,"2023-01-16T06:04:23.370Z"
40,-0.64850587,-0.6596314,0.3639624,350,"2023-01-16T06:05:23.932Z"
39,-0.6479834,-0.6592578,0.36712646,350,"2023-01-16T06:06:24.494Z"
61,-0.50195557,0.8454443,-0.089909665,350,"2023-01-16T06:07:25.056Z"
57,-0.2815503,0.8077466,0.48869628,348,"2023-01-16T06:08:25.618Z"
45,0.55605227,-0.26869383,0.7135498,346,"2023-01-16T06:09:26.181Z"
76,-0.4959033,0.6067188,0.5671948,346,"2023-01-16T06:10:26.743Z"
75,-0.59865725,0.73627687,0.20479004,342,"2023-01-16T06:11:27.290Z"
81,-0.006916504,0.8625464,0.49076173,338,"2023-01-16T06:12:27.853Z"
75,0.9601587,0.16460206,0.29125488,334,"2023-01-16T06:13:28.415Z"
52,0.04619629,0.6565356,0.732439,332,"2023-01-16T06:14:28.977Z"
