"hr","accel_x","accel_y","accel_z","skin_temp","ts"
39,0.171875,-0.6292529,-0.7768506,337,"2023-03-16T00:00:00.054Z"
40,0.4980591,0.8768286,-0.04598633,337,"2023-03-16T00:01:00.617Z"
36,0.4938379,0.8782471,-0.059609376,335,"2023-03-16T00:02:01.179Z"
36,0.4869043,0.8805225,-0.07619629,333,"2023-03-16T00:03:01.742Z"
41,0.48648193,0.87990236,-0.08384521,332,"2023-03-16T00:04:02.304Z"
40,0.48213136,0.8797998,-0.10777588,331,"2023-03-16T00:05:02.866Z"
40,0.48109862,0.8834912,-0.07114258,330,"2023-03-16T00:06:03.428Z"
38,0.4908667,0.86438966,-0.17611328,329,"2023-03-16T00:07:03.991Z"
37,0.48941162,0.8642407,-0.18093018,328,"2023-03-16T00:08:04.553Z"
36,0.4898511,0.86416507,-0.1821704,327,"2023-03-16T00:09:05.115Z"
36,0.48874757,0.86130124,-0.19620118,326,"2023-03-16T00:10:05.677Z"
38,0.47771972,0.86432374,-0.20717286,325,"2023-03-16T00:11:06.240Z"
38,0.4754761,0.86067384,-0.23034424,325,"2023-03-16T00:12:06.802Z"
37,0.475188,0.85960203,-0.23244873,324,"2023-03-16T00:13:07.364Z"
39,0.4739502,0.86001706,-0.23426758,324,"2023-03-16T00:14:07.927Z"
38,0.39266112,0.90672606,-0.20068848,324,"2023-03-16T00:15:08.489Z"
35,0.28757325,0.90025145,0.33516845,323,"2023-03-16T00:16:09.051Z"
36,0.28756836,0.9011499,0.3313452,322,"2023-03-16T00:17:09.613Z"
37,0.28570068,0.90184814,0.33162108,322,"2023-03-16T00:18:10.176Z"
40,0.28431398,0.89923096,0.34025633,322,"2023-03-16T00:19:10.750Z"
39,0.27196532,0.91151613,0.31278566,321,"2023-03-16T00:20:11.313Z"
35,0.27181396,0.91634035,0.30106202,320,"2023-03-16T00:21:11.875Z"
38,0.2715503,0.917312,0.29846925,320,"2023-03-16T00:22:12.437Z"
35,0.30306152,0.7595996,0.57813966,319,"2023-03-16T00:23:13.000Z"
37,0.3027759,0.76097167,0.57614744,318,"2023-03-16T00:24:13.562Z"
34,0.5621631,0.35071778,0.76104003,318,"2023-03-16T00:25:14.124Z"
42,0.5638159,0.5629028,0.6170874,317,"2023-03-16T00:26:14.686Z"
39,0.56369627,0.5663428,0.6145801,317,"2023-03-16T00:27:15.249Z"
38,0.5628882,0.5666675,0.61449707,316,"2023-03-16T00:28:15.811Z"
38,0.5632422,0.57336426,0.608457,316,"2023-03-16T00:29:16.373Z"
38,0.562146,0.5747534,0.608645,316,"2023-03-16T00:30:16.935Z"
38,0.5620752,0.5751538,0.6076001,315,"2023-03-16T00:31:17.498Z"
37,0.5618555,0.5757129,0.60776854,315,"2023-03-16T00:32:18.060Z"
38,0.5617334,0.5758374,0.6069556,315,"2023-03-16T00:33:18.622Z"
37,0.4898999,0.79781497,0.37080324,315,"2023-03-16T00:34:19.184Z"
39,0.48976317,0.799353,0.36788818,315,"2023-03-16T00:35:19.747Z"
35,0.48955077,0.79979736,0.36556396,314,"2023-03-16T00:36:20.309Z"
38,0.48975098,0.80125,0.36412597,314,"2023-03-16T00:37:20.871Z"
42,0.48857665,0.8026123,0.36128417,314,"2023-03-16T00:38:21.446Z"
43,0.48812255,0.80362546,0.3608081,314,"2023-03-16T00:39:22.008Z"
48,0.36199462,0.9225586,0.1685913,314,"2023-03-16T00:40:22.570Z"
48,0.35646483,0.92774415,0.1500293,314,"2023-03-16T00:41:23.133Z"
45,0.35380858,0.93029296,0.13826416,314,"2023-03-16T00:42:23.695Z"
44,0.35077393,0.9320679,0.1326123,313,"2023-03-16T00:43:24.257Z"
44,0.34990966,0.93276614,0.12893799,313,"2023-03-16T00:44:24.819Z"
46,0.3504541,0.93418455,0.116967775,312,"2023-03-16T00:45:25.382Z"
44,0.3490576,0.93570554,0.112558596,312,"2023-03-16T00:46:25.944Z"
44,0.3487207,0.93568116,0.10917969,312,"2023-03-16T00:47:26.506Z"
43,0.34877685,0.9361084,0.109001465,311,"2023-03-16T00:48:27.068Z"
52,0.3467041,0.93693113,0.10597412,310,"2023-03-16T00:49:27.631Z"
54,0.34641114,0.93744385,0.104702145,310,"2023-03-16T00:50:28.193Z"
54,0.34587157,0.93794924,0.10424072,310,"2023-03-16T00:51:28.755Z"
66,-0.9073633,0.36474365,0.06778076,309,"2023-03-16T00:52:29.317Z"
40,-0.9043848,0.37166992,0.07445557,312,"2023-03-16T00:53:29.880Z"
41,-0.90216064,0.37641114,0.07932129,315,"2023-03-16T00:54:30.442Z"
40,-0.9007593,0.3777368,0.08083984,318,"2023-03-16T00:55:31.004Z"
43,-0.8989258,0.38237792,0.08273682,320,"2023-03-16T00:56:31.566Z"
42,-0.8984155,0.38284913,0.08771484,322,"2023-03-16T00:57:32.141Z"
39,-0.90048826,0.3796753,0.081069335,324,"2023-03-16T00:58:32.703Z"
36,-0.8980127,0.38330567,0.08894043,325,"2023-03-16T00:59:33.266Z"
37,-0.8971411,0.38531494,0.089787595,326,"2023-03-16T01:00:33.828Z"
42,-0.89776856,0.38466063,0.08942383,328,"2023-03-16T01:01:34.390Z"
38,-0.8995288,0.3814575,0.08652832,328,"2023-03-16T01:02:34.952Z"
43,-0.8976855,0.3845752,0.09038086,329,"2023-03-16T01:03:35.515Z"
44,-0.8986304,0.38384765,0.08750244,330,"2023-03-16T01:04:36.077Z"
42,-0.89668703,0.38656494,0.09010254,331,"2023-03-16T01:05:36.639Z"
40,-0.8965454,0.387334,0.09134521,331,"2023-03-16T01:06:37.201Z"
41,-0.8962427,0.38796142,0.09361816,332,"2023-03-16T01:07:37.764Z"
42,-0.8955225,0.3880127,0.09339111,333,"2023-03-16T01:08:38.326Z"
39,-0.8964795,0.3870044,0.092629395,334,"2023-03-16T01:09:38.888Z"
46,-0.8948877,0.38972414,0.09500244,335,"2023-03-16T01:10:39.450Z"
43,-0.89417726,0.39128417,0.09760498,335,"2023-03-16T01:11:40.013Z"
42,-0.8943896,0.39120117,0.09650635,336,"2023-03-16T01:12:40.575Z"
41,-0.89523435,0.38890135,0.09275391,335,"2023-03-16T01:13:41.137Z"
47,-0.8933203,0.39366454,0.09436523,335,"2023-03-16T01:14:41.699Z"
43,-0.89428467,0.3920874,0.09169922,336,"2023-03-16T01:15:42.262Z"
41,-0.89312744,0.39324462,0.09266357,337,"2023-03-16T01:16:42.836Z"
38,-0.8931421,0.39470458,0.09690186,337,"2023-03-16T01:17:43.399Z"
43,-0.892041,0.39493898,0.096911624,338,"2023-03-16T01:18:43.961Z"
45,-0.89173585,0.39577636,0.09943359,338,"2023-03-16T01:19:44.523Z"
40,-0.8934009,0.39312255,0.09596679,338,"2023-03-16T01:20:45.085Z"
44,-0.89231443,0.39574462,0.098979495,339,"2023-03-16T01:21:45.648Z"
43,-0.89171875,0.3950366,0.09817138,339,"2023-03-16T01:22:46.210Z"
40,-0.8912866,0.3963965,0.10077149,339,"2023-03-16T01:23:46.772Z"
41,-0.89194334,0.3957837,0.09892334,339,"2023-03-16T01:24:47.334Z"
46,-0.89107424,0.39791015,0.10062256,340,"2023-03-16T01:25:47.897Z"
46,-0.8901123,0.39769775,0.100551754,340,"2023-03-16T01:26:48.459Z"
42,-0.892229,0.39601806,0.09706543,340,"2023-03-16T01:27:49.021Z"
37,-0.89237547,0.39450195,0.096228026,340,"2023-03-16T01:28:49.583Z"
45,-0.892395,0.3946631,0.096486814,341,"2023-03-16T01:29:50.146Z"
38,-0.89095217,0.39752197,0.10061035,341,"2023-03-16T01:30:50.708Z"
40,-0.89275634,0.39459473,0.096816406,341,"2023-03-16T01:31:51.270Z"
40,-0.8907666,0.39857665,0.10217773,341,"2023-03-16T01:32:51.833Z"
39,-0.8923877,0.39492187,0.09645996,341,"2023-03-16T01:33:52.395Z"
40,-0.8892432,0.40110353,0.10161621,341,"2023-03-16T01:34:52.957Z"
47,-0.8897388,0.40046144,0.10067139,342,"2023-03-16T01:35:53.531Z"
65,0.048637696,0.5510425,0.8266797,342,"2023-03-16T01:36:54.094Z"
39,0.060808107,0.57888186,0.80691165,340,"2023-03-16T01:37:54.656Z"
47,0.059033204,0.61237305,0.7825024,338,"2023-03-16T01:38:55.218Z"
45,0.5230444,0.5398535,0.6709619,336,"2023-03-16T01:39:55.781Z"
38,0.52958983,0.5407446,0.6657007,335,"2023-03-16T01:40:56.343Z"
37,0.5140454,0.4920874,0.7144067,334,"2023-03-16T01:41:56.905Z"
38,0.51395506,0.49621826,0.710647,332,"2023-03-16T01:42:57.467Z"
39,0.5076367,0.5085156,0.7064746,331,"2023-03-16T01:43:58.030Z"
38,0.49655762,0.58875245,0.64810544,330,"2023-03-16T01:44:58.592Z"
39,0.4961084,0.58884764,0.6479468,329,"2023-03-16T01:45:59.154Z"
35,0.49650878,0.5894922,0.64741945,328,"2023-03-16T01:46:59.716Z"
36,0.49266112,0.6136719,0.62698483,327,"2023-03-16T01:48:00.279Z"
38,0.49157715,0.61507815,0.6269751,326,"2023-03-16T01:49:00.841Z"
38,0.49111083,0.6140308,0.6279028,326,"2023-03-16T01:50:01.403Z"
40,0.49110594,0.61662596,0.6254566,326,"2023-03-16T01:51:01.965Z"
37,0.4754492,0.674563,0.5748584,325,"2023-03-16T01:52:02.528Z"
36,0.43323243,0.5765064,0.7008789,325,"2023-03-16T01:53:03.090Z"
39,0.43302247,0.5780835,0.69937253,324,"2023-03-16T01:54:03.652Z"
37,0.43311036,0.5778833,0.699021,324,"2023-03-16T01:55:04.227Z"
38,0.4319409,0.579375,0.6987622,323,"2023-03-16T01:56:04.789Z"
39,-0.016462402,-0.7386084,-0.6921509,324,"2023-03-16T01:57:05.351Z"
37,-0.010473633,-0.7364453,-0.6954736,324,"2023-03-16T01:58:05.914Z"
37,-0.007050781,-0.73195314,-0.6995874,324,"2023-03-16T01:59:06.476Z"
40,-0.0051757814,-0.7326074,-0.6991406,325,"2023-03-16T02:00:07.038Z"
38,0.0038964844,-0.72037107,-0.71133304,326,"2023-03-16T02:01:07.600Z"
39,0.004680176,-0.7215259,-0.7104053,327,"2023-03-16T02:02:08.163Z"
38,0.005895996,-0.7213257,-0.71034425,328,"2023-03-16T02:03:08.725Z"
42,0.38917238,0.2738623,0.88608885,328,"2023-03-16T02:04:09.287Z"
37,0.3862085,0.2772412,0.8869678,326,"2023-03-16T02:05:09.849Z"
38,0.3919873,0.25385255,0.8916162,326,"2023-03-16T02:06:10.412Z"
37,0.3888452,0.25331056,0.8931079,325,"2023-03-16T02:07:10.974Z"
38,0.3880786,0.25365478,0.89259523,324,"2023-03-16T02:08:11.536Z"
41,0.3873584,0.25410402,0.8931909,323,"2023-03-16T02:09:12.098Z"
39,0.3868457,0.25454345,0.8925049,323,"2023-03-16T02:10:12.661Z"
38,0.38538086,0.2555591,0.8930029,322,"2023-03-16T02:11:13.223Z"
40,0.38580322,0.2556543,0.89297605,322,"2023-03-16T02:12:13.785Z"
39,0.38519776,0.2556958,0.893374,321,"2023-03-16T02:13:14.347Z"
41,0.38544434,0.25558594,0.8926416,321,"2023-03-16T02:14:14.922Z"
37,0.42351562,0.5020337,0.76079345,321,"2023-03-16T02:15:15.484Z"
61,0.40566406,0.19562988,0.8999438,321,"2023-03-16T02:16:16.047Z"
37,0.40310302,0.1984497,0.9009375,323,"2023-03-16T02:17:16.609Z"
35,0.40309083,0.20032471,0.9009814,325,"2023-03-16T02:18:17.171Z"
41,0.4032715,0.20131104,0.90074706,326,"2023-03-16T02:19:17.733Z"
37,0.40207765,0.19854492,0.9018286,328,"2023-03-16T02:20:18.296Z"
38,0.4030298,0.20022461,0.90104,330,"2023-03-16T02:21:18.858Z"
38,0.40166748,0.19958252,0.90216553,331,"2023-03-16T02:22:19.420Z"
36,0.40138426,0.19812012,0.9025781,332,"2023-03-16T02:23:19.982Z"
39,0.40277588,0.20099121,0.9014478,333,"2023-03-16T02:24:20.545Z"
39,0.40262696,0.20393799,0.90091795,334,"2023-03-16T02:25:21.107Z"
41,0.40199706,0.20325683,0.9016577,335,"2023-03-16T02:26:21.669Z"
51,0.603667,0.03211914,0.81357175,337,"2023-03-16T02:27:22.231Z"
35,0.6003955,0.02864502,0.8165039,337,"2023-03-16T02:28:22.794Z"
41,0.6029126,0.02385498,0.8150439,336,"2023-03-16T02:29:23.356Z"
34,0.09216553,-0.49887452,-0.8765552,335,"2023-03-16T02:30:23.918Z"
35,0.09077637,-0.4962085,-0.877771,335,"2023-03-16T02:31:24.480Z"
38,0.08557373,-0.53363526,-0.856311,334,"2023-03-16T02:32:25.042Z"
34,0.08529541,-0.53558105,-0.85513186,336,"2023-03-16T02:33:25.613Z"
39,0.085446775,-0.5373486,-0.85368407,338,"2023-03-16T02:34:26.179Z"
37,0.08954834,-0.5609961,-0.8379102,337,"2023-03-16T02:35:26.742Z"
39,0.08793701,-0.56482667,-0.83475584,338,"2023-03-16T02:36:27.304Z"
38,0.088542484,-0.5682593,-0.8329248,339,"2023-03-16T02:37:27.866Z"
46,0.08815429,-0.5830127,-0.8223169,339,"2023-03-16T02:38:28.428Z"
36,0.09007324,-0.5829761,-0.8224316,339,"2023-03-16T02:39:28.991Z"
38,0.09003906,-0.58644533,-0.82069093,339,"2023-03-16T02:40:29.553Z"
39,0.08960205,-0.58779055,-0.81877196,340,"2023-03-16T02:41:30.115Z"
38,0.090026855,-0.5888159,-0.81847167,340,"2023-03-16T02:42:30.677Z"
46,0.0792334,-0.57932127,-0.82573974,340,"2023-03-16T02:43:31.240Z"
39,0.07911377,-0.57962155,-0.82590574,341,"2023-03-16T02:44:31.802Z"
38,0.07735596,-0.5797656,-0.8260376,341,"2023-03-16T02:45:32.364Z"
38,0.077800296,-0.5791309,-0.8266895,341,"2023-03-16T02:46:32.926Z"
38,0.07691162,-0.55977786,-0.83908933,341,"2023-03-16T02:47:33.489Z"
64,0.10746094,-1.0093603,0.013149414,337,"2023-03-16T02:48:34.051Z"
40,0.10166748,-1.0095679,0.02105957,336,"2023-03-16T02:49:34.613Z"
41,0.09909668,-1.0100342,0.017841797,336,"2023-03-16T02:50:35.175Z"
42,0.09918213,-1.0097535,0.017231446,337,"2023-03-16T02:51:35.738Z"
40,0.10101806,-1.0096265,0.012741699,336,"2023-03-16T02:52:36.308Z"
36,0.10815918,-1.0086792,0.028110351,336,"2023-03-16T02:53:36.875Z"
37,0.10845215,-1.009275,0.031625975,335,"2023-03-16T02:54:37.437Z"
44,0.10902344,-1.0087427,0.03286621,335,"2023-03-16T02:55:37.999Z"
40,0.108789064,-1.0089331,0.032683104,335,"2023-03-16T02:56:38.561Z"
41,0.107766114,-1.0088233,0.02559082,334,"2023-03-16T02:57:39.124Z"
39,0.107861325,-1.008982,0.025969239,334,"2023-03-16T02:58:39.686Z"
39,0.11000244,-1.0089868,0.02427002,334,"2023-03-16T02:59:40.248Z"
37,0.11003662,-1.0087208,0.024104005,334,"2023-03-16T03:00:40.810Z"
35,0.110942386,-1.0086597,0.024162598,334,"2023-03-16T03:01:41.373Z"
37,0.109318845,-1.0087329,0.022355957,334,"2023-03-16T03:02:41.935Z"
38,0.108942874,-1.0088012,0.023300782,334,"2023-03-16T03:03:42.497Z"
44,0.08370117,-0.9798047,-0.25152588,332,"2023-03-16T03:04:43.059Z"
65,0.073288575,-0.31717774,-0.9592334,336,"2023-03-16T03:05:43.622Z"
41,0.07519043,-0.31415772,-0.9590674,337,"2023-03-16T03:06:44.184Z"
39,0.074782714,-0.31384766,-0.9592456,339,"2023-03-16T03:07:44.746Z"
37,0.0751416,-0.31377196,-0.9584741,340,"2023-03-16T03:08:45.308Z"
45,0.076018065,-0.3148169,-0.9577881,341,"2023-03-16T03:09:45.871Z"
41,0.07694092,-0.315105,-0.9579785,342,"2023-03-16T03:10:46.433Z"
39,0.0772168,-0.31489745,-0.9578076,343,"2023-03-16T03:11:47.003Z"
43,0.07823242,-0.31400147,-0.957749,344,"2023-03-16T03:12:47.570Z"
41,0.07756348,-0.31423828,-0.95745605,344,"2023-03-16T03:13:48.132Z"
39,0.0779126,-0.31442872,-0.9575024,345,"2023-03-16T03:14:48.694Z"
43,0.037775878,-0.44445556,-0.90693116,344,"2023-03-16T03:15:49.256Z"
40,0.038234863,-0.4437622,-0.9073315,343,"2023-03-16T03:16:49.819Z"
36,0.05732666,-1.0100781,0.074072264,343,"2023-03-16T03:17:50.381Z"
43,0.05452881,-1.0106714,0.06742432,343,"2023-03-16T03:18:50.943Z"
43,0.052578125,-1.0108032,0.06548584,343,"2023-03-16T03:19:51.505Z"
47,0.051848143,-1.0111597,0.063588865,342,"2023-03-16T03:20:52.067Z"
45,0.055219725,-1.0117896,0.0616626,341,"2023-03-16T03:21:52.630Z"
48,0.049624022,-1.0116211,0.057785645,341,"2023-03-16T03:22:53.192Z"
39,0.049750976,-1.0118823,0.056584474,341,"2023-03-16T03:23:53.754Z"
46,0.049018554,-1.0120801,0.056794435,340,"2023-03-16T03:24:54.316Z"
46,0.049709473,-1.0118017,0.055388182,340,"2023-03-16T03:25:54.879Z"
41,0.049318846,-1.011853,0.054335937,340,"2023-03-16T03:26:55.441Z"
53,0.14291015,-0.8775806,-0.4931909,339,"2023-03-16T03:27:56.003Z"
39,0.090412594,-0.96404296,-0.30540526,335,"2023-03-16T03:28:56.565Z"
42,0.10186035,-0.9608203,-0.3132544,334,"2023-03-16T03:29:57.128Z"
44,0.09800781,-0.96214354,-0.30990234,333,"2023-03-16T03:30:57.698Z"
52,0.6255444,0.25928223,0.75116456,332,"2023-03-16T03:31:58.265Z"
35,0.597998,0.08760254,0.81178224,335,"2023-03-16T03:32:58.827Z"
39,0.59747803,0.0895166,0.81193846,335,"2023-03-16T03:33:59.389Z"
40,0.5980542,0.09040527,0.81191164,336,"2023-03-16T03:34:59.951Z"
38,0.5989795,0.08732666,0.81157714,336,"2023-03-16T03:36:00.514Z"
36,0.5968311,0.08972656,0.8126416,337,"2023-03-16T03:37:01.076Z"
42,0.59821045,0.089433596,0.81239504,337,"2023-03-16T03:38:01.638Z"
42,0.59728026,0.091452636,0.81246096,338,"2023-03-16T03:39:02.200Z"
39,0.59661865,0.09116943,0.8131397,338,"2023-03-16T03:40:02.763Z"
36,0.5976416,0.08992431,0.8131665,339,"2023-03-16T03:41:03.325Z"
39,0.59711915,0.09041992,0.81359375,339,"2023-03-16T03:42:03.887Z"
51,0.5945874,0.09472901,0.814563,339,"2023-03-16T03:43:04.449Z"
43,0.5938355,0.09552979,0.8150049,340,"2023-03-16T03:44:05.011Z"
43,0.5950195,0.09287598,0.81455076,340,"2023-03-16T03:45:05.574Z"
43,0.59362304,0.09541015,0.8143994,341,"2023-03-16T03:46:06.136Z"
40,0.59417236,0.09623779,0.8148706,341,"2023-03-16T03:47:06.698Z"
52,0.0052026366,-0.5422363,-0.85047364,341,"2023-03-16T03:48:07.260Z"
35,0.006328125,-0.52548337,-0.8626074,337,"2023-03-16T03:49:07.823Z"
42,0.004111328,-0.5239551,-0.8636865,336,"2023-03-16T03:50:08.393Z"
34,0.00421875,-0.5204248,-0.8662524,335,"2023-03-16T03:51:08.960Z"
39,0.00328125,-0.5190161,-0.8672314,335,"2023-03-16T03:52:09.522Z"
37,0.001772461,-0.51761717,-0.8678662,334,"2023-03-16T03:53:10.084Z"
41,0.0016210937,-0.518125,-0.8674927,334,"2023-03-16T03:54:10.646Z"
44,0.0013818359,-0.5173169,-0.8678272,334,"2023-03-16T03:55:11.209Z"
38,0.001550293,-0.516792,-0.8687134,334,"2023-03-16T03:56:11.771Z"
41,0.0014013671,-0.51615477,-0.8682544,335,"2023-03-16T03:57:12.333Z"
41,0.0013671875,-0.5155981,-0.8687915,335,"2023-03-16T03:58:12.895Z"
40,0.0009692383,-0.5156543,-0.868811,335,"2023-03-16T03:59:13.458Z"
38,0.0012304687,-0.5149805,-0.8698389,335,"2023-03-16T04:00:14.020Z"
40,0.00092529296,-0.51512206,-0.86954343,336,"2023-03-16T04:01:14.582Z"
40,0.0009716797,-0.51262206,-0.8701611,336,"2023-03-16T04:02:15.144Z"
43,0.0011279297,-0.5140747,-0.86989504,337,"2023-03-16T04:03:15.707Z"
43,0.00094970706,-0.5128711,-0.8707251,337,"2023-03-16T04:04:16.269Z"
41,0.00045166016,-0.5122095,-0.8708765,337,"2023-03-16T04:05:16.831Z"
61,0.07290039,-1.0074756,-0.09921875,338,"2023-03-16T04:06:17.393Z"
43,0.074052736,-1.0072412,-0.099970706,337,"2023-03-16T04:07:17.956Z"
40,0.08358887,-1.0077393,-0.09312012,337,"2023-03-16T04:08:18.518Z"
37,0.6477588,0.32473144,0.7074634,340,"2023-03-16T04:09:19.088Z"
41,0.6463257,0.32711425,0.70698,338,"2023-03-16T04:10:19.655Z"
38,0.6453906,0.32710937,0.70776856,336,"2023-03-16T04:11:20.217Z"
37,0.6449316,0.3273877,0.7075244,333,"2023-03-16T04:12:20.779Z"
38,0.64482665,0.33031005,0.70713866,332,"2023-03-16T04:13:21.342Z"
38,0.6446411,0.33123535,0.7060986,330,"2023-03-16T04:14:21.903Z"
37,0.58509034,0.45361328,0.6871069,329,"2023-03-16T04:15:22.466Z"
35,0.5816528,0.46158203,0.68362063,328,"2023-03-16T04:16:23.028Z"
36,0.5818091,0.46385497,0.6831396,326,"2023-03-16T04:17:23.591Z"
37,0.57969725,0.4651294,0.68293947,325,"2023-03-16T04:18:24.153Z"
36,0.580437,0.46756104,0.68033934,324,"2023-03-16T04:19:24.715Z"
38,0.5686939,0.48772705,0.6754224,323,"2023-03-16T04:20:25.277Z"
39,0.5678589,0.4902661,0.6745142,322,"2023-03-16T04:21:25.840Z"
35,0.55872315,0.4891919,0.6828125,321,"2023-03-16T04:22:26.402Z"
37,0.5584521,0.4904077,0.68194336,319,"2023-03-16T04:23:26.963Z"
38,0.55744874,0.49099854,0.68249756,318,"2023-03-16T04:24:27.526Z"
36,0.55697024,0.49286377,0.6813013,317,"2023-03-16T04:25:28.089Z"
37,0.55670166,0.4933008,0.68086916,316,"2023-03-16T04:26:28.651Z"
37,0.5565332,0.49373534,0.6807349,316,"2023-03-16T04:27:29.213Z"
38,0.5562354,0.4948413,0.680542,315,"2023-03-16T04:28:29.784Z"
39,0.5563599,0.4956128,0.6797314,314,"2023-03-16T04:29:30.350Z"
37,0.55574465,0.49605224,0.6794678,313,"2023-03-16T04:30:30.912Z"
39,0.5565112,0.4965503,0.6795166,313,"2023-03-16T04:31:31.475Z"
38,0.5561279,0.4972168,0.6794019,312,"2023-03-16T04:32:32.037Z"
37,0.55621094,0.49719483,0.6793652,311,"2023-03-16T04:33:32.599Z"
37,0.5548657,0.4952173,0.6815308,311,"2023-03-16T04:34:33.161Z"
38,0.55306154,0.49682373,0.68093264,310,"2023-03-16T04:35:33.724Z"
38,0.5543628,0.49622804,0.681084,310,"2023-03-16T04:36:34.286Z"
39,0.5537378,0.4978418,0.68066406,309,"2023-03-16T04:37:34.848Z"
40,0.55362546,0.49790284,0.6808667,309,"2023-03-16T04:38:35.410Z"
40,0.55333006,0.497583,0.68001956,308,"2023-03-16T04:39:35.973Z"
38,0.5533667,0.49854004,0.68028563,308,"2023-03-16T04:40:36.535Z"
38,0.55391115,0.4981128,0.6799731,307,"2023-03-16T04:41:37.097Z"
39,0.5534497,0.49909914,0.67993164,307,"2023-03-16T04:42:37.659Z"
38,0.5534985,0.49947998,0.6796411,306,"2023-03-16T04:43:38.222Z"
38,0.55319095,0.5001172,0.6799512,306,"2023-03-16T04:44:38.784Z"
39,0.5534619,0.49962646,0.6794922,305,"2023-03-16T04:45:39.346Z"
39,0.5536865,0.49980956,0.6793066,305,"2023-03-16T04:46:39.909Z"
39,0.0835376,-0.5587915,-0.84081787,306,"2023-03-16T04:47:40.479Z"
46,0.08500488,-0.56000245,-0.8399487,307,"2023-03-16T04:48:41.046Z"
40,0.08600586,-0.55933106,-0.8409473,308,"2023-03-16T04:49:41.608Z"
40,0.08614746,-0.5591577,-0.8398193,309,"2023-03-16T04:50:42.170Z"
40,0.08641601,-0.5591016,-0.8406689,311,"2023-03-16T04:51:42.732Z"
42,0.030368652,-0.4085376,-0.92548096,312,"2023-03-16T04:52:43.295Z"
36,0.59460694,0.34798828,0.7393433,312,"2023-03-16T04:53:43.857Z"
37,0.58075684,0.35909912,0.74501956,311,"2023-03-16T04:54:44.419Z"
43,0.5814526,0.3550659,0.74615234,311,"2023-03-16T04:55:44.981Z"
39,0.58192384,0.34996092,0.7480127,310,"2023-03-16T04:56:45.544Z"
41,0.567727,0.34664306,0.7595068,310,"2023-03-16T04:57:46.106Z"
43,0.51941895,0.6189136,0.6013208,309,"2023-03-16T04:58:46.668Z"
42,0.5165381,0.62489504,0.5978198,308,"2023-03-16T04:59:47.231Z"
41,0.5147852,0.61897707,0.6058276,308,"2023-03-16T05:00:47.793Z"
43,0.50786376,0.62371093,0.60611814,307,"2023-03-16T05:01:48.355Z"
41,0.50586426,0.63269776,0.59816164,307,"2023-03-16T05:02:48.917Z"
40,0.504646,0.63290286,0.59979737,306,"2023-03-16T05:03:49.480Z"
43,0.50457275,0.6339307,0.59830564,306,"2023-03-16T05:04:50.042Z"
45,0.11257568,-0.8806616,-0.49323243,299,"2023-03-16T05:05:50.604Z"
38,0.10613281,-0.8791675,-0.49625978,299,"2023-03-16T05:06:51.167Z"
39,0.1054956,-0.87841064,-0.49795166,304,"2023-03-16T05:07:51.741Z"
43,0.10505615,-0.87681884,-0.50024414,306,"2023-03-16T05:08:52.303Z"
40,0.10440918,-0.8757202,-0.5023291,309,"2023-03-16T05:09:52.866Z"
70,-0.8687964,0.45413575,0.057929687,319,"2023-03-16T05:10:53.428Z"
72,0.50822264,0.8553467,0.15660645,318,"2023-03-16T05:11:53.990Z"
64,-0.33749512,0.8419971,0.3782202,316,"2023-03-16T05:12:54.552Z"
72,0.025625,0.8786352,0.29008302,316,"2023-03-16T05:13:55.115Z"
63,-0.26195067,0.9398535,0.027321778,312,"2023-03-16T05:14:55.677Z"
69,-0.5997388,0.7024243,0.10911621,315,"2023-03-16T05:15:56.239Z"
68,0.5778027,0.81975096,0.030598145,316,"2023-03-16T05:16:56.802Z"
66,-0.76579833,0.30770507,0.5245239,316,"2023-03-16T05:17:57.364Z"
39,-0.76767576,0.30654785,0.5230664,316,"2023-03-16T05:18:57.926Z"
43,-0.7671509,0.30296874,0.526001,316,"2023-03-16T05:19:58.488Z"
40,-0.7664087,0.3056372,0.5260132,316,"2023-03-16T05:20:59.051Z"
38,-0.76708984,0.30742186,0.52388185,316,"2023-03-16T05:21:59.613Z"
57,-0.5556372,0.7743799,-0.26577637,315,"2023-03-16T05:23:00.175Z"
35,-0.54014647,0.7962402,-0.23191895,316,"2023-03-16T05:24:00.738Z"
50,-0.32609376,-0.11214111,0.92433107,318,"2023-03-16T05:25:01.300Z"
36,-0.3430005,-0.3114136,0.87620115,321,"2023-03-16T05:26:01.862Z"
39,-0.33866942,-0.3044287,0.8811939,324,"2023-03-16T05:27:02.424Z"
37,-0.3379248,-0.30860353,0.87999266,327,"2023-03-16T05:28:02.987Z"
37,-0.3376367,-0.31778565,0.87694824,330,"2023-03-16T05:29:03.549Z"
35,-0.3361206,-0.31950438,0.87684816,332,"2023-03-16T05:30:04.111Z"
38,-0.33316895,-0.33336425,0.8736572,334,"2023-03-16T05:31:04.673Z"
39,-0.33159667,-0.33776122,0.8724121,336,"2023-03-16T05:32:05.236Z"
36,-0.33456787,-0.34190187,0.8702148,337,"2023-03-16T05:33:05.798Z"
38,-0.3319507,-0.33966064,0.87237304,338,"2023-03-16T05:34:06.360Z"
37,-0.3448706,-0.42266357,0.83077884,339,"2023-03-16T05:35:06.922Z"
38,-0.33520263,-0.39764404,0.8471533,340,"2023-03-16T05:36:07.484Z"
37,-0.33574706,-0.39647216,0.8476856,341,"2023-03-16T05:37:08.047Z"
37,-0.33828124,-0.37723145,0.8545459,342,"2023-03-16T05:38:08.609Z"
37,-0.33596435,-0.37546876,0.8570288,343,"2023-03-16T05:39:09.171Z"
41,-0.33791748,-0.3773926,0.8554614,344,"2023-03-16T05:40:09.733Z"
38,-0.33436525,-0.36996093,0.8601929,344,"2023-03-16T05:41:10.296Z"
37,-0.33337647,-0.37051025,0.86018556,345,"2023-03-16T05:42:10.858Z"
38,-0.3331665,-0.37620848,0.857395,346,"2023-03-16T05:43:11.420Z"
44,-0.3359912,-0.37535644,0.8569629,346,"2023-03-16T05:44:11.982Z"
39,-0.33182374,-0.37733886,0.8579004,346,"2023-03-16T05:45:12.545Z"
37,-0.332146,-0.37498534,0.85861325,347,"2023-03-16T05:46:13.107Z"
41,-0.33198488,-0.37465575,0.8590674,348,"2023-03-16T05:47:13.669Z"
49,-0.2847998,-0.47154054,0.83176756,348,"2023-03-16T05:48:14.231Z"
35,0.45414793,0.16931641,0.88562745,349,"2023-03-16T05:49:14.793Z"
40,0.45669678,0.1690454,0.88426024,348,"2023-03-16T05:50:15.356Z"
37,0.4566382,0.17753662,0.8828833,348,"2023-03-16T05:51:15.918Z"
37,0.45638672,0.17620605,0.88227296,348,"2023-03-16T05:52:16.480Z"
37,0.45726317,0.16987549,0.8843237,348,"2023-03-16T05:53:17.042Z"
37,0.4573462,0.1682959,0.88364744,347,"2023-03-16T05:54:17.605Z"
37,0.45882323,0.16988525,0.88286376,347,"2023-03-16T05:55:18.167Z"
38,0.4605835,0.16276611,0.8837085,348,"2023-03-16T05:56:18.729Z"
46,0.4637085,0.15173829,0.88398683,348,"2023-03-16T05:57:19.291Z"
47,-0.59089357,0.6447656,0.44783446,347,"2023-03-16T05:58:19.854Z"
42,-0.400083,0.5181128,-0.7521338,347,"2023-03-16T05:59:20.428Z"
59,-0.7355078,0.32531005,0.5590332,346,"2023-03-16T06:00:20.990Z"
36,-0.72019774,0.33587646,0.5723022,346,"2023-03-16T06:01:21.552Z"
37,-0.7085034,0.3683667,0.56687987,346,"2023-03-16T06:02:22.115Z"
44,-0.70828855,0.36850587,0.5676367,346,"2023-03-16T06:03:22.677Z"
37,-0.6997412,0.41460937,0.5456812,347,"2023-03-16T06:04:23.239Z"
39,-0.6912622,0.4448828,0.53375244,347,"2023-03-16T06:05:23.802Z"
66,0.51268554,-0.011123047,0.8727588,348,"2023-03-16T06:06:24.364Z"
40,0.5105274,-0.0090625,0.873418,348,"2023-03-16T06:07:24.926Z"
40,0.5091626,-0.019038087,0.87448,348,"2023-03-16T06:08:25.488Z"
68,0.44495606,0.9256372,0.14333984,348,"2023-03-16T06:09:26.050Z"
74,0.9382324,-0.23024659,0.2436377,346,"2023-03-16T06:10:26.613Z"
64,-0.58623534,0.6415747,0.4550879,343,"2023-03-16T06:11:27.175Z"
77,0.81418455,0.432417,0.25783446,341,"2023-03-16T06:12:27.737Z"
72,0.2903174,0.94089353,0.19311279,338,"2023-03-16T06:13:28.299Z"
58,0.12306885,0.9600513,0.31451416,337,"2023-03-16T06:14:28.862Z"
83,0.2777002,0.8705371,0.40397218,336,"2023-03-16T06:15:29.424Z"
67,0.064973146,0.13834961,0.9868579,332,"2023-03-16T06:16:29.986Z"
60,0.25258055,0.7582788,0.5376636,331,"2023-03-16T06:17:30.548Z"
63,-0.0083569335,0.8553125,0.4913965,331,"2023-03-16T06:18:31.111Z"
62,0.14802246,0.9686914,0.25072998,330,"2023-03-16T06:19:31.673Z"
67,0.38491455,0.81338865,0.46168944,329,"2023-03-16T06:20:32.235Z"
63,0.16627441,0.90890384,0.35587403,327,"2023-03-16T06:21:32.797Z"
58,0.37469482,0.80391115,-0.48069093,327,"2023-03-16T06:22:33.360Z"
65,0.5415454,0.83087647,0.1423999,327,"2023-03-16T06:23:33.922Z"
59,0.40677002,0.8354102,0.3441333,326,"2023-03-16T06:24:34.484Z"
63,0.26270264,0.96730226,0.069355465,325,"2023-03-16T06:25:35.046Z"
62,0.2857715,0.7528076,0.6005835,325,"2023-03-16T06:26:35.609Z"
64,0.7378003,0.3173926,0.6205273,325,"2023-03-16T06:27:36.171Z"
56,0.38305664,0.90345705,0.2187622,325,"2023-03-16T06:28:36.733Z"
60,0.10954346,0.83062744,0.4909912,326,"2023-03-16T06:29:37.295Z"
64,0.34669676,0.86139894,0.376438,326,"2023-03-16T06:30:37.858Z"
69,0.30642578,0.6382373,0.7029321,326,"2023-03-16T06:31:38.420Z"
69,0.15775147,0.88661623,0.37308595,326,"2023-03-16T06:32:38.982Z"
68,0.9050513,-0.18719727,0.42546874,326,"2023-03-16T06:33:39.544Z"
73,-0.35415772,0.8940015,-0.27979493,326,"2023-03-16T06:34:40.107Z"
76,0.93509763,0.4076343,0.06449463,325,"2023-03-16T06:35:40.669Z"
70,0.67472655,0.68731445,-0.2874878,325,"2023-03-16T06:36:41.231Z"
60,-0.11363281,0.765979,0.6179614,325,"2023-03-16T06:37:41.793Z"
57,-0.093168944,0.8034546,0.5730176,323,"2023-03-16T06:38:42.356Z"
60,-0.1317456,0.72789794,0.6587671,323,"2023-03-16T06:39:42.918Z"
57,-0.067839354,0.808667,0.57085204,322,"2023-03-16T06:40:43.480Z"
56,0.99118406,0.19382325,0.14989258,324,"2023-03-16T06:41:44.042Z"
61,0.048479006,0.9467212,0.30708495,323,"2023-03-16T06:42:44.605Z"
55,-0.097033694,0.83018553,0.534458,324,"2023-03-16T06:43:45.167Z"
52,-0.09712646,0.8406372,0.5183252,324,"2023-03-16T06:44:45.729Z"
58,0.015634766,0.8621997,0.49685547,325,"2023-03-16T06:45:46.292Z"
57,-0.09652832,0.63351077,0.7556958,325,"2023-03-16T06:46:46.854Z"
67,0.019260254,0.6897705,0.720481,325,"2023-03-16T06:47:47.416Z"
69,0.027548827,0.72828126,0.6777905,325,"2023-03-16T06:48:47.978Z"
59,0.9503662,0.14853027,0.29904786,326,"2023-03-16T06:49:48.541Z"
60,-0.07013184,0.6312109,0.7596826,326,"2023-03-16T06:50:49.103Z"
64,-0.16788574,0.85740966,0.47184572,327,"2023-03-16T06:51:49.665Z"
62,-0.06782471,0.78796875,0.5977563,327,"2023-03-16T06:52:50.227Z"
58,-0.15302002,0.7760449,0.59762454,328,"2023-03-16T06:53:50.790Z"
62,0.006777344,0.79563963,0.5939282,329,"2023-03-16T06:54:51.352Z"
62,-0.051188964,0.9492432,0.06171875,329,"2023-03-16T06:55:51.914Z"
70,0.82582766,0.45614013,0.39210206,330,"2023-03-16T06:56:52.476Z"
80,-0.58350587,0.60945314,0.353479,331,"2023-03-16T06:57:53.039Z"
74,-0.20383057,0.93756104,0.1338208,332,"2023-03-16T06:58:53.601Z"
69,-0.051977538,0.6839355,0.717251,331,"2023-03-16T06:59:54.163Z"
53,-0.047229003,0.6986572,0.7032788,330,"2023-03-16T07:00:54.725Z"
50,-0.04350342,0.6713794,0.72884035,329,"2023-03-16T07:01:55.287Z"
53,-0.05648926,0.6119385,0.7789502,328,"2023-03-16T07:02:55.850Z"
54,-0.03321045,0.60532224,0.78596926,327,"2023-03-16T07:03:56.412Z"
59,-0.04659912,0.67094237,0.72843015,327,"2023-03-16T07:04:56.974Z"
63,-0.051811524,0.6248242,0.7684741,326,"2023-03-16T07:05:57.536Z"
54,-0.026115723,0.5709839,0.8095874,325,"2023-03-16T07:06:58.099Z"
62,-0.024472656,0.6321191,0.76557374,325,"2023-03-16T07:07:58.661Z"
63,-0.050429687,0.5812012,0.80191404,324,"2023-03-16T07:08:59.223Z"
51,-0.061743163,0.6303345,0.7635229,325,"2023-03-16T07:09:59.785Z"
55,-0.057507325,0.64560056,0.7518164,325,"2023-03-16T07:11:00.348Z"
49,-0.049084473,0.6473779,0.7511328,325,"2023-03-16T07:12:00.910Z"
59,-0.05912842,0.6795264,0.7220093,324,"2023-03-16T07:13:01.472Z"
53,-0.045754395,0.6587183,0.74040526,324,"2023-03-16T07:14:02.034Z"
59,-0.06688476,0.7003198,0.69989014,324,"2023-03-16T07:15:02.597Z"
50,0.20160888,0.5285767,0.82303953,323,"2023-03-16T07:16:03.159Z"
65,0.025073241,0.9755151,0.19708985,324,"2023-03-16T07:17:03.721Z"
69,-0.038735352,0.91888183,0.37823486,325,"2023-03-16T07:18:04.283Z"
69,-0.023955079,0.93285155,0.34384277,325,"2023-03-16T07:19:04.846Z"
62,-0.0028271484,0.88275635,0.4641455,326,"2023-03-16T07:20:05.408Z"
52,-0.047392577,0.6487793,0.7503174,326,"2023-03-16T07:21:05.970Z"
53,-0.045651857,0.6472437,0.7499878,326,"2023-03-16T07:22:06.532Z"
50,-0.040505372,0.66504395,0.7350781,326,"2023-03-16T07:23:07.095Z"
49,-0.053881835,0.6945923,0.70618653,325,"2023-03-16T07:24:07.657Z"
57,-0.028562011,0.659729,0.7406982,326,"2023-03-16T07:25:08.219Z"
55,-0.020095214,0.64115965,0.75659424,326,"2023-03-16T07:26:08.781Z"
60,-0.033659667,0.627854,0.768147,326,"2023-03-16T07:27:09.344Z"
49,-0.018459473,0.62356204,0.7724854,326,"2023-03-16T07:28:09.906Z"
59,-0.023256836,0.61525637,0.77871823,326,"2023-03-16T07:29:10.468Z"
61,-0.016740723,0.59081787,0.79650146,327,"2023-03-16T07:30:11.031Z"
55,-0.046367187,0.6383496,0.7598706,327,"2023-03-16T07:31:11.593Z"
56,-0.06521484,0.6882593,0.71229494,327,"2023-03-16T07:32:12.155Z"
55,-0.04842285,0.68367434,0.7170727,327,"2023-03-16T07:33:12.717Z"
54,-0.018937988,0.60110354,0.7908789,327,"2023-03-16T07:34:13.280Z"
62,-0.031987306,0.6519873,0.7470386,327,"2023-03-16T07:35:13.842Z"
65,-0.14504394,0.6072559,0.7696533,327,"2023-03-16T07:36:14.404Z"
75,0.262229,0.9482861,0.057578124,327,"2023-03-16T07:37:14.966Z"
75,0.80066407,0.28723878,0.561582,327,"2023-03-16T07:38:15.529Z"
80,-0.120036624,0.7385547,-0.66591066,326,"2023-03-16T07:39:16.091Z"
88,0.05494385,0.96145993,-0.22101806,327,"2023-03-16T07:40:16.653Z"
83,-0.7551782,0.6130127,-0.21929199,327,"2023-03-16T07:41:17.215Z"
77,-0.8952075,0.31431884,-0.3042383,325,"2023-03-16T07:42:17.778Z"
75,-0.7053735,0.6174121,-0.19299561,325,"2023-03-16T07:43:18.340Z"
78,-0.04063965,0.89619875,0.34281495,325,"2023-03-16T07:44:18.902Z"
81,-0.9745337,0.02244873,-0.23338623,324,"2023-03-16T07:45:19.464Z"
74,-0.50374514,0.9107251,-0.18247071,324,"2023-03-16T07:46:20.027Z"
64,-0.3224292,0.34669435,0.87160647,325,"2023-03-16T07:47:20.589Z"
71,0.44633302,-0.6041162,0.68210447,324,"2023-03-16T07:48:21.151Z"
63,0.8456665,0.27432373,0.4926416,317,"2023-03-16T07:49:21.713Z"
69,-0.023183594,0.60739744,0.78119385,315,"2023-03-16T07:50:22.276Z"
68,-0.45020753,0.73312014,0.48725832,315,"2023-03-16T07:51:22.838Z"
71,-0.42097414,0.88447267,0.06772217,317,"2023-03-16T07:52:23.400Z"
70,-0.6716162,0.7072876,0.1166748,317,"2023-03-16T07:53:23.962Z"
77,0.38234863,0.8022681,0.33198243,316,"2023-03-16T07:54:24.525Z"
69,0.021865234,0.77449954,0.51741946,316,"2023-03-16T07:55:25.087Z"
69,-0.38863036,0.526228,0.63777345,315,"2023-03-16T07:56:25.649Z"
66,-0.19288819,0.79510987,-0.53085446,315,"2023-03-16T07:57:26.211Z"
65,-0.42263183,0.5180371,0.71910644,315,"2023-03-16T07:58:26.774Z"
72,-0.2764502,0.95689696,-0.16421875,315,"2023-03-16T07:59:27.336Z"
68,-0.20126465,0.8316333,-0.45591795,316,"2023-03-16T08:00:27.898Z"
71,-0.2808301,0.88846433,-0.34947264,315,"2023-03-16T08:01:28.460Z"
70,-0.17700928,0.94209474,0.16538574,314,"2023-03-16T08:02:29.023Z"
70,-0.010449219,0.79622316,0.43498048,314,"2023-03-16T08:03:29.585Z"
73,-0.24010497,0.051606447,0.9541577,312,"2023-03-16T08:04:30.147Z"
80,0.116999514,0.7389233,-0.6632886,314,"2023-03-16T08:05:30.709Z"
69,-0.15307862,0.856626,0.49538085,315,"2023-03-16T08:06:31.272Z"
76,-0.10977783,0.9619653,0.041118164,314,"2023-03-16T08:07:31.834Z"
82,-0.30405763,0.5635059,0.7512964,313,"2023-03-16T08:08:32.396Z"
79,0.42084962,0.87552,-0.19135255,313,"2023-03-16T08:09:32.958Z"
55,-0.68401366,0.26544923,0.4788257,311,"2023-03-16T08:10:33.521Z"
50,0.1607544,0.85970706,0.48337403,313,"2023-03-16T08:11:34.083Z"
69,-0.11267334,0.8875586,-0.43262452,314,"2023-03-16T08:12:34.645Z"
67,0.3621753,0.9394946,0.041159667,314,"2023-03-16T08:13:35.208Z"
61,0.44136962,0.8821875,0.20224121,314,"2023-03-16T08:14:35.770Z"
63,0.40089357,0.92326415,0.014855957,317,"2023-03-16T08:15:36.332Z"
63,0.45834962,0.89215577,0.08981201,319,"2023-03-16T08:16:36.895Z"
72,0.5876636,0.8233936,-0.024362793,322,"2023-03-16T08:17:37.457Z"
72,0.5082691,0.79784423,0.34898925,324,"2023-03-16T08:18:38.019Z"
65,0.7852393,0.6383716,-0.0045043947,323,"2023-03-16T08:19:38.581Z"
68,-0.66792727,0.7199536,0.094018556,322,"2023-03-16T08:20:39.143Z"
79,-0.6071118,0.6990161,-0.21449707,322,"2023-03-16T08:21:39.705Z"
89,-0.46858886,0.8879834,0.025581054,321,"2023-03-16T08:22:40.268Z"
84,-0.80776125,0.5982959,-0.15197021,318,"2023-03-16T08:23:40.830Z"
82,-0.018020019,0.8253613,-0.22020751,317,"2023-03-16T08:24:41.392Z"
75,-0.86064696,0.12561035,-0.4113257,315,"2023-03-16T08:25:41.955Z"
89,-0.1662915,0.61764646,-0.6823828,314,"2023-03-16T08:26:42.517Z"
85,-0.042839356,0.9465991,0.0016699219,313,"2023-03-16T08:27:43.079Z"
85,0.69690675,0.79538083,-0.051513672,313,"2023-03-16T08:28:43.641Z"
100,-0.62882566,0.41265625,0.63187253,308,"2023-03-16T08:29:44.204Z"
116,-0.6516089,0.34184083,0.6372754,300,"2023-03-16T08:30:44.766Z"
127,-0.6809888,0.3124707,0.6286841,291,"2023-03-16T08:31:45.328Z"
111,-0.4468335,0.05223633,0.87564206,286,"2023-03-16T08:32:45.890Z"
97,-0.37555176,0.56763184,0.7099951,282,"2023-03-16T08:33:46.453Z"
109,-0.72409177,0.2671338,0.6195313,285,"2023-03-16T08:34:47.015Z"
121,-0.7043628,0.3850659,0.5937915,282,"2023-03-16T08:35:47.577Z"
121,-0.6382788,0.61184084,0.113840334,283,"2023-03-16T08:36:48.140Z"
111,-0.09975342,1.0045704,-0.06773193,285,"2023-03-16T08:37:48.702Z"
106,-0.4408838,0.8768872,-0.16674072,289,"2023-03-16T08:38:49.264Z"
95,-0.8106201,0.5564795,-0.016472168,293,"2023-03-16T08:39:49.826Z"
85,-0.36801758,0.9446997,-0.07996582,294,"2023-03-16T08:40:50.389Z"
81,-0.01342041,0.5280005,0.84193116,295,"2023-03-16T08:41:50.951Z"
55,-0.028015137,0.65030026,0.74870604,298,"2023-03-16T08:42:51.513Z"
60,-0.02663086,0.61340576,0.78019285,298,"2023-03-16T08:43:52.076Z"
70,0.010385742,0.94212157,0.32426512,296,"2023-03-16T08:44:52.638Z"
64,0.01157959,0.6005176,0.79085207,292,"2023-03-16T08:45:53.200Z"
53,0.0048510744,0.5266577,0.8388989,296,"2023-03-16T08:46:53.762Z"
58,-0.013981934,0.58750975,0.804978,295,"2023-03-16T08:47:54.325Z"
66,-0.009958496,0.61054444,0.7850928,296,"2023-03-16T08:48:54.887Z"
58,-0.02036377,0.6578735,0.7453589,298,"2023-03-16T08:49:55.449Z"
59,0.006179199,0.530874,0.8401294,301,"2023-03-16T08:50:56.011Z"
63,0.00032714845,0.53474367,0.83420897,305,"2023-03-16T08:51:56.574Z"
67,0.0026318359,0.6239087,0.7722974,308,"2023-03-16T08:52:57.136Z"
73,0.0019213867,0.5677832,0.81425047,312,"2023-03-16T08:53:57.698Z"
60,0.015874023,0.54492676,0.8309424,314,"2023-03-16T08:54:58.260Z"
55,-0.01661621,0.65516603,0.7458716,316,"2023-03-16T08:55:58.823Z"
54,-0.008486328,0.6105469,0.7821655,319,"2023-03-16T08:56:59.385Z"
53,0.14297852,0.80587405,-0.6029541,320,"2023-03-16T08:57:59.947Z"
51,0.023041992,0.7579639,0.6426196,321,"2023-03-16T08:59:00.510Z"
71,-0.012780761,0.63120604,0.7647827,322,"2023-03-16T09:00:01.072Z"
65,0.010578614,0.9389502,0.3334204,323,"2023-03-16T09:01:01.634Z"
54,0.025283203,0.929585,0.3578711,324,"2023-03-16T09:02:02.196Z"
53,0.0036376952,0.92499757,0.36882567,325,"2023-03-16T09:03:02.759Z"
50,-0.009296875,0.6034082,0.78786135,326,"2023-03-16T09:04:03.321Z"
48,-0.008840332,0.5825952,0.80337644,326,"2023-03-16T09:05:03.883Z"
59,-0.0064916993,0.5810669,0.8039771,327,"2023-03-16T09:06:04.445Z"
50,-0.006508789,0.5779712,0.806311,327,"2023-03-16T09:07:05.008Z"
51,-0.009013671,0.5888159,0.7989136,327,"2023-03-16T09:08:05.570Z"
49,-0.0063549806,0.60204834,0.78938234,327,"2023-03-16T09:09:06.132Z"
69,0.006340332,0.9551318,0.28618652,328,"2023-03-16T09:10:06.694Z"
51,-0.006401367,0.67121583,0.7313428,329,"2023-03-16T09:11:07.257Z"
53,0.38695312,0.36313722,0.7631616,328,"2023-03-16T09:12:07.819Z"
51,-0.0022509766,0.5820459,0.80385745,329,"2023-03-16T09:13:08.381Z"
54,-0.010871582,0.60291505,0.78908205,329,"2023-03-16T09:14:08.943Z"
51,0.028796386,0.5902979,0.80581546,329,"2023-03-16T09:15:09.506Z"
52,-0.0057495115,0.54116213,0.83381593,329,"2023-03-16T09:16:10.068Z"
55,0.012019043,0.5413257,0.83216065,329,"2023-03-16T09:17:10.630Z"
65,-0.007871094,0.9320313,0.3521753,329,"2023-03-16T09:18:11.192Z"
51,0.02984375,0.94408935,0.31730226,328,"2023-03-16T09:19:11.755Z"
56,-0.006916504,0.6416211,0.7575171,329,"2023-03-16T09:20:12.317Z"
53,0.02019287,0.611499,0.78126955,329,"2023-03-16T09:21:12.879Z"
59,0.015952148,0.93211424,0.34917235,328,"2023-03-16T09:22:13.441Z"
53,0.02661621,0.55568606,0.8223828,328,"2023-03-16T09:23:14.004Z"
50,-0.0012060547,0.7192871,0.6844141,328,"2023-03-16T09:24:14.566Z"
52,-0.0059399414,0.6761426,0.7282886,328,"2023-03-16T09:25:15.128Z"
51,0.29109374,0.6279346,0.7181006,328,"2023-03-16T09:26:15.690Z"
79,-0.56807864,0.79631835,-0.016757812,342,"2023-03-16T09:27:16.252Z"
84,0.4642041,0.6314087,-0.68580323,346,"2023-03-16T09:28:16.814Z"
84,-0.032407228,0.6478076,0.74583495,352,"2023-03-16T09:29:17.376Z"
82,-0.03668457,0.616438,0.77238035,355,"2023-03-16T09:30:17.939Z"
65,-0.01614746,0.5642749,0.80516356,358,"2023-03-16T09:31:18.501Z"
48,-0.025214843,0.6217334,0.75995606,361,"2023-03-16T09:32:19.063Z"
58,-0.033347167,0.68304443,0.7038721,361,"2023-03-16T09:33:19.625Z"
51,-0.044865724,0.68987304,0.7030005,361,"2023-03-16T09:34:20.188Z"
52,-0.027248535,0.5991846,0.7799634,361,"2023-03-16T09:35:20.750Z"
59,-0.045522463,0.6738208,0.7195093,362,"2023-03-16T09:36:21.312Z"
62,0.75834227,0.5909717,0.20528321,364,"2023-03-16T09:37:21.874Z"
66,0.0036157228,0.5726733,0.80361086,364,"2023-03-16T09:38:22.436Z"
52,-0.030754395,0.7225513,0.6708081,366,"2023-03-16T09:39:22.999Z"
60,-0.0054125977,0.61364746,0.7712061,366,"2023-03-16T09:40:23.561Z"
68,-0.033237305,0.8621509,0.48416504,368,"2023-03-16T09:41:24.123Z"
67,-0.04359131,0.64728516,0.7411499,368,"2023-03-16T09:42:24.685Z"
59,0.6523535,0.6600513,0.39345458,368,"2023-03-16T09:43:25.247Z"
61,-0.017341308,0.7836792,0.6014868,371,"2023-03-16T09:44:25.810Z"
75,-0.9178125,0.44412842,0.11232666,378,"2023-03-16T09:45:26.372Z"
78,-0.2532251,0.6891089,-0.6263721,383,"2023-03-16T09:46:26.934Z"
91,0.04895508,0.57962155,-0.8346289,384,"2023-03-16T09:47:27.496Z"
84,-0.78829104,0.5632959,-0.18965577,384,"2023-03-16T09:48:28.058Z"
88,-0.66947997,0.40766603,0.5913623,388,"2023-03-16T09:49:28.620Z"
104,-0.6465991,0.47511473,0.5735059,368,"2023-03-16T09:50:29.183Z"
104,-0.7368286,0.2682593,0.5656128,362,"2023-03-16T09:51:29.745Z"
118,-0.43322265,0.49653566,0.7142627,369,"2023-03-16T09:52:30.307Z"
109,-0.71258056,0.22164795,0.588352,371,"2023-03-16T09:53:30.869Z"
118,-0.7033032,0.33365968,0.59613526,370,"2023-03-16T09:54:31.431Z"
119,-0.54185545,0.81792235,-0.059570312,369,"2023-03-16T09:55:31.993Z"
111,-0.22799316,0.6961792,-0.0446875,368,"2023-03-16T09:56:32.556Z"
122,-0.43918702,0.8375024,0.24842773,371,"2023-03-16T09:57:33.118Z"
121,-0.8038208,0.65155274,-0.02192871,368,"2023-03-16T09:58:33.680Z"
127,-0.39109376,0.7415967,-0.5297339,352,"2023-03-16T09:59:34.243Z"
140,-0.30934325,0.9279614,0.056572266,344,"2023-03-16T10:00:34.805Z"
130,0.28578368,0.9071484,-0.31351075,339,"2023-03-16T10:01:35.367Z"
129,-0.60705566,0.68450195,0.11359863,356,"2023-03-16T10:02:35.929Z"
130,-0.5073755,0.41258544,0.6646851,368,"2023-03-16T10:03:36.491Z"
123,-0.3107544,0.68744385,-0.6619971,372,"2023-03-16T10:04:37.053Z"
124,0.3021704,0.9133789,0.25702637,374,"2023-03-16T10:05:37.615Z"
111,-0.0786499,0.7264502,0.61211425,380,"2023-03-16T10:06:38.178Z"
110,-0.30693114,0.8929907,0.31120118,383,"2023-03-16T10:07:38.740Z"
99,-0.2623047,0.9261279,0.26423097,381,"2023-03-16T10:08:39.302Z"
102,-0.33524415,0.87095946,0.22557373,376,"2023-03-16T10:09:39.864Z"
101,-0.30316162,0.8271729,0.40960205,382,"2023-03-16T10:10:40.427Z"
99,0.24750732,0.8330664,-0.506189,380,"2023-03-16T10:11:40.989Z"
103,0.106499024,0.842771,0.344624,382,"2023-03-16T10:12:41.551Z"
99,0.0071240235,0.69910645,-0.017067872,371,"2023-03-16T10:13:42.113Z"
103,-0.2642627,0.7820874,0.5346655,380,"2023-03-16T10:14:42.675Z"
95,-0.557273,0.76396483,0.06976563,382,"2023-03-16T10:15:43.237Z"
101,-0.7048462,0.66013426,0.08082275,384,"2023-03-16T10:16:43.800Z"
64,0.35864013,0.913186,-0.20754638,383,"2023-03-16T10:17:44.362Z"
57,-0.30972168,0.67985594,0.6507056,382,"2023-03-16T10:18:44.924Z"
60,0.56884277,0.75951904,-0.33042237,374,"2023-03-16T10:19:45.487Z"
71,-0.81943846,0.5539355,0.11229004,361,"2023-03-16T10:20:46.049Z"
74,-0.8305054,0.47784913,-0.055551756,354,"2023-03-16T10:21:46.596Z"
75,0.33576906,0.819978,-0.13067383,350,"2023-03-16T10:22:47.158Z"
71,-0.758042,0.6225635,-0.22218017,347,"2023-03-16T10:23:47.721Z"
72,-0.6159253,0.771521,-0.05836914,342,"2023-03-16T10:24:48.283Z"
69,-0.9261987,0.16082764,0.27220213,339,"2023-03-16T10:25:48.845Z"
56,-0.47397217,0.8496045,-0.18151122,338,"2023-03-16T10:26:49.407Z"
60,0.10584961,0.73051023,-0.68094236,334,"2023-03-16T10:27:49.970Z"
71,-0.9027051,0.25365233,-0.41783202,340,"2023-03-16T10:28:50.531Z"
75,-0.6427978,0.6463525,-0.26150146,350,"2023-03-16T10:29:51.094Z"
67,-0.22947754,0.9048145,-0.32869872,355,"2023-03-16T10:30:51.656Z"
72,-0.73772216,0.63508546,0.13454102,358,"2023-03-16T10:31:52.218Z"
78,-0.9383716,0.26801026,-0.1637085,363,"2023-03-16T10:32:52.780Z"
101,-0.7730786,0.6054834,0.00019042968,366,"2023-03-16T10:33:53.342Z"
81,-0.19028321,0.9093945,0.29328126,367,"2023-03-16T10:34:53.904Z"
66,-0.75725096,0.5401953,-0.3227344,348,"2023-03-16T10:35:54.467Z"
79,-0.5742383,0.7379834,0.25893065,340,"2023-03-16T10:36:55.030Z"
83,-0.7113184,0.2771533,0.6011865,347,"2023-03-16T10:37:55.591Z"
87,-0.7817773,0.34903565,0.5158252,357,"2023-03-16T10:38:56.153Z"
76,-0.7275366,0.24419433,0.6113501,362,"2023-03-16T10:39:56.715Z"
83,-0.47451904,0.76719236,0.43111327,362,"2023-03-16T10:40:57.278Z"
82,-0.7253149,0.23129883,0.5780127,362,"2023-03-16T10:41:57.840Z"
86,-0.61874753,0.44576415,0.5977466,366,"2023-03-16T10:42:58.402Z"
77,-0.4129834,0.28844482,0.8368359,358,"2023-03-16T10:43:58.965Z"
79,-0.79522216,0.18750244,0.5730249,341,"2023-03-16T10:44:59.527Z"
83,-0.6722559,0.47206298,0.5390894,335,"2023-03-16T10:46:00.089Z"
63,-0.3030713,0.89178467,0.31706056,327,"2023-03-16T10:47:00.652Z"
80,-0.81270266,0.33696288,0.4515918,334,"2023-03-16T10:48:01.213Z"
80,-0.7497217,0.6418774,-0.36561525,341,"2023-03-16T10:49:01.775Z"
67,-0.7564575,0.59047854,-0.26887453,349,"2023-03-16T10:50:02.338Z"
84,-0.82791746,0.5257983,0.16583252,348,"2023-03-16T10:51:02.900Z"
69,-0.87922853,0.36926025,0.16684814,353,"2023-03-16T10:52:03.462Z"
70,0.31783935,0.9136865,0.02706543,358,"2023-03-16T10:53:04.024Z"
74,0.313667,0.84744143,0.36009276,357,"2023-03-16T10:54:04.586Z"
70,0.4901367,0.8658716,0.11968017,345,"2023-03-16T10:55:05.149Z"
79,0.22772461,0.9558936,-0.21605712,355,"2023-03-16T10:56:05.711Z"
60,0.13504882,0.9462842,-0.31246337,359,"2023-03-16T10:57:06.273Z"
56,0.20530762,0.96440184,-0.19708496,364,"2023-03-16T10:58:06.835Z"
75,0.6715332,0.3703833,0.60758543,365,"2023-03-16T10:59:07.397Z"
50,0.44828856,0.89675295,0.09202149,370,"2023-03-16T11:00:07.960Z"
68,0.81315184,-0.37427002,0.48463866,358,"2023-03-16T11:01:08.522Z"
60,0.100546874,0.9964893,-0.17835693,346,"2023-03-16T11:02:09.085Z"
62,0.5501831,0.8123535,-0.22026367,341,"2023-03-16T11:03:09.647Z"
61,0.18244141,0.90950197,0.37985596,337,"2023-03-16T11:04:10.209Z"
63,-0.19150634,0.95473635,-0.2789331,334,"2023-03-16T11:05:10.757Z"
68,0.3865796,0.8968726,-0.25654542,341,"2023-03-16T11:06:11.318Z"
57,0.16885743,0.8880444,0.41747314,350,"2023-03-16T11:07:11.880Z"
66,0.29974365,0.8689136,0.39594483,348,"2023-03-16T11:08:12.443Z"
69,0.19974121,0.95749265,-0.28103027,346,"2023-03-16T11:09:13.005Z"
68,0.75708985,0.35795167,0.57104003,347,"2023-03-16T11:10:13.567Z"
69,0.046782225,0.30079833,0.952876,347,"2023-03-16T11:11:14.129Z"
65,0.09534424,0.1726709,0.858479,348,"2023-03-16T11:12:14.691Z"
76,-0.15689209,0.8481055,0.49180907,349,"2023-03-16T11:13:15.254Z"
81,0.45219725,0.8425244,-0.15040772,348,"2023-03-16T11:14:15.816Z"
51,0.647334,0.6549878,-0.41261962,349,"2023-03-16T11:15:16.378Z"
57,0.079802245,0.95315915,-0.2989917,350,"2023-03-16T11:16:16.940Z"
71,0.35559082,0.60593504,0.6715161,351,"2023-03-16T11:17:17.502Z"
55,0.72032714,-0.23313965,0.6088623,345,"2023-03-16T11:18:18.065Z"
74,0.11122803,0.80418456,0.5373291,344,"2023-03-16T11:19:18.627Z"
62,0.05104004,0.58169675,0.8086914,342,"2023-03-16T11:20:19.189Z"
58,0.028588867,0.6512671,0.75867677,341,"2023-03-16T11:21:19.751Z"
52,-0.0074243164,0.5742383,0.81433594,340,"2023-03-16T11:22:20.314Z"
50,0.00671875,0.6145483,0.7844287,339,"2023-03-16T11:23:20.876Z"
60,0.7921265,0.241521,0.3515674,337,"2023-03-16T11:24:21.438Z"
61,0.06621582,0.55510986,0.8402783,338,"2023-03-16T11:25:22.000Z"
59,-0.009790039,0.5873633,0.8047998,338,"2023-03-16T11:26:22.563Z"
57,0.014199219,0.52821535,0.8440039,339,"2023-03-16T11:27:23.125Z"
50,0.017856445,0.56048584,0.8232056,340,"2023-03-16T11:28:23.687Z"
64,-0.08082764,0.70307374,0.69840574,339,"2023-03-16T11:29:24.249Z"
47,0.11953125,0.66108155,0.7386279,338,"2023-03-16T11:30:24.812Z"
54,-0.08417236,0.5404077,0.82939696,339,"2023-03-16T11:31:25.374Z"
63,0.33785155,0.94203126,0.08254883,333,"2023-03-16T11:32:25.936Z"
63,0.41190186,0.74361086,-0.54132324,331,"2023-03-16T11:33:26.498Z"
67,-0.6487915,0.7083618,-0.19634765,329,"2023-03-16T11:34:27.060Z"
85,-0.5863794,0.7513062,-0.047995605,325,"2023-03-16T11:35:27.623Z"
78,0.34458008,0.7399463,-0.5917749,324,"2023-03-16T11:36:28.185Z"
72,-0.73389405,0.6383936,-0.019611817,325,"2023-03-16T11:37:28.747Z"
70,-0.859397,0.52413577,0.029152833,325,"2023-03-16T11:38:29.309Z"
80,-0.37324464,0.8868457,0.22783203,325,"2023-03-16T11:39:29.872Z"
83,-0.51770264,0.77975345,-0.30809325,325,"2023-03-16T11:40:30.434Z"
82,-0.4028491,0.6764331,0.60301024,321,"2023-03-16T11:41:30.996Z"
76,-0.88119143,0.2140918,0.32501465,322,"2023-03-16T11:42:31.558Z"
83,-0.7056787,0.26585448,0.60987794,322,"2023-03-16T11:43:32.120Z"
75,-0.6992285,0.27587646,0.6282495,322,"2023-03-16T11:44:32.683Z"
80,-0.4609424,0.49229735,0.6322461,322,"2023-03-16T11:45:33.245Z"
65,-0.539541,0.7190674,-0.44011962,321,"2023-03-16T11:46:33.807Z"
70,-0.3420166,0.66010255,0.4051074,320,"2023-03-16T11:47:34.369Z"
63,-0.121621095,0.9692212,0.1832373,321,"2023-03-16T11:48:34.932Z"
80,0.10498535,0.6090527,-0.41854736,321,"2023-03-16T11:49:35.494Z"
86,-0.55957276,0.67819095,-0.42739013,321,"2023-03-16T11:50:36.056Z"
83,-0.6784302,0.70586425,-0.11949707,320,"2023-03-16T11:51:36.618Z"
82,-0.058879394,0.964353,-0.24905273,320,"2023-03-16T11:52:37.181Z"
82,-0.50129884,0.6351147,-0.5084326,321,"2023-03-16T11:53:37.743Z"
73,-0.101931155,0.76366943,0.037619628,322,"2023-03-16T11:54:38.305Z"
69,-0.5679004,0.61691165,-0.53078127,316,"2023-03-16T11:55:38.868Z"
52,0.4248755,0.66472167,-0.63037354,312,"2023-03-16T11:56:39.430Z"
53,-0.78956056,0.5987671,0.17550293,309,"2023-03-16T11:57:39.993Z"
68,-0.8048828,0.3541626,-0.023723144,308,"2023-03-16T11:58:40.555Z"
77,0.1464209,0.8409717,-0.5150806,307,"2023-03-16T11:59:41.117Z"
61,0.19722413,0.6853589,-0.71951413,310,"2023-03-16T12:00:41.679Z"
130,-1.2020825,0.9134448,0.31824708,308,"2023-03-16T12:01:42.242Z"
142,-0.6726245,0.3925293,0.15903808,302,"2023-03-16T12:02:42.804Z"
146,-1.5569482,0.9904004,0.20548828,297,"2023-03-16T12:03:43.366Z"
143,0.77592283,0.539314,0.12121338,297,"2023-03-16T12:04:43.928Z"
117,-0.6527759,0.6692188,-0.19206543,299,"2023-03-16T12:05:44.491Z"
137,-0.80484617,0.87398195,0.21394287,297,"2023-03-16T12:06:45.053Z"
142,-1.2096581,0.8708227,0.2472754,294,"2023-03-16T12:07:45.615Z"
140,-0.78517336,0.62137204,0.1773755,291,"2023-03-16T12:08:46.177Z"
145,0.1947412,0.90878415,-0.3920288,295,"2023-03-16T12:09:46.740Z"
104,-0.8709839,0.4680005,0.011791992,295,"2023-03-16T12:10:47.302Z"
137,-1.5853003,1.0831518,0.1468286,286,"2023-03-16T12:11:47.865Z"
154,-0.637854,0.46080565,0.10494873,285,"2023-03-16T12:12:48.427Z"
156,-0.66848147,0.6764404,0.30141112,285,"2023-03-16T12:13:48.989Z"
147,0.82483155,0.30397215,0.47040284,291,"2023-03-16T12:14:49.551Z"
145,-0.8279297,0.50289065,0.11255615,293,"2023-03-16T12:15:50.114Z"
155,-0.62642825,0.64312744,0.024824219,280,"2023-03-16T12:16:50.676Z"
154,-1.3091968,0.9664966,0.32424316,282,"2023-03-16T12:17:51.238Z"
155,-1.4662158,1.071106,0.35401857,281,"2023-03-16T12:18:51.800Z"
140,-0.5705127,0.76009524,0.0602417,290,"2023-03-16T12:19:52.363Z"
116,0.23131835,0.91811526,-0.13059814,291,"2023-03-16T12:20:52.925Z"
148,-0.7481299,0.689043,0.20025635,281,"2023-03-16T12:21:53.487Z"
158,-1.4286816,1.1372559,0.23906495,280,"2023-03-16T12:22:54.050Z"
148,-0.81641847,0.60808593,0.08463379,281,"2023-03-16T12:23:54.612Z"
114,0.10037842,0.90941405,-0.39790285,290,"2023-03-16T12:24:55.174Z"
114,0.6264185,0.5057959,0.5548926,292,"2023-03-16T12:25:55.736Z"
157,-0.6527002,0.46345946,0.13789062,283,"2023-03-16T12:26:56.299Z"
148,-0.70629394,0.74213135,0.23159912,280,"2023-03-16T12:27:56.861Z"
155,-1.3277612,1.1499927,0.37745363,280,"2023-03-16T12:28:57.423Z"
155,-0.7567212,0.55990237,0.4056616,288,"2023-03-16T12:29:57.986Z"
150,0.1464917,0.91808105,-0.3311328,289,"2023-03-16T12:30:58.548Z"
142,-1.0757812,0.34871092,-0.12021484,291,"2023-03-16T12:31:59.110Z"
131,-0.91049314,0.23270264,0.22320557,291,"2023-03-16T12:32:59.672Z"
109,-0.59708494,0.77406496,0.12223877,295,"2023-03-16T12:34:00.235Z"
97,-0.6794629,0.6684131,0.2393042,295,"2023-03-16T12:35:00.797Z"
116,-0.6356616,0.7204443,0.2017334,299,"2023-03-16T12:36:01.359Z"
109,-0.31752685,0.9288745,-0.1182373,303,"2023-03-16T12:37:01.921Z"
111,0.40770996,0.8728809,-0.2973169,305,"2023-03-16T12:38:02.484Z"
94,0.27869385,0.8918872,-0.36892822,306,"2023-03-16T12:39:03.046Z"
97,-0.6783057,0.73978025,-0.021970214,311,"2023-03-16T12:40:03.608Z"
101,0.27036622,0.9276831,-0.067807615,311,"2023-03-16T12:41:04.171Z"
94,0.5725659,0.57594484,0.22134033,312,"2023-03-16T12:42:04.733Z"
86,-0.7603223,0.55823976,0.2630127,314,"2023-03-16T12:43:05.295Z"
96,-0.6200903,0.7443603,0.16804443,316,"2023-03-16T12:44:05.857Z"
82,-0.5387183,0.7987402,0.20397705,318,"2023-03-16T12:45:06.420Z"
80,0.2582837,0.8250659,-0.51931643,318,"2023-03-16T12:46:06.982Z"
85,0.26281738,0.63214844,-0.7479932,318,"2023-03-16T12:47:07.544Z"
102,-0.059689943,0.66809815,0.73089355,317,"2023-03-16T12:48:08.106Z"
76,-0.5323315,0.7662695,0.30697265,314,"2023-03-16T12:49:08.668Z"
74,0.32208008,0.9486377,0.067165524,313,"2023-03-16T12:50:09.231Z"
74,0.37922364,0.9305493,0.020456543,313,"2023-03-16T12:51:09.793Z"
78,0.1943164,0.765708,-0.6242969,313,"2023-03-16T12:52:10.355Z"
83,-0.13443115,0.92909425,0.24891357,315,"2023-03-16T12:53:10.918Z"
103,-0.58105713,0.602229,-0.40438965,313,"2023-03-16T12:54:11.480Z"
109,-0.97198,0.5413428,-0.10986816,313,"2023-03-16T12:55:12.042Z"
114,0.33329102,0.7249292,0.53021973,311,"2023-03-16T12:56:12.604Z"
119,0.047182616,0.9949024,0.014606934,308,"2023-03-16T12:57:13.167Z"
95,0.45943847,0.76855224,-0.46836913,306,"2023-03-16T12:58:13.729Z"
76,0.46870604,0.7731592,-0.4544043,305,"2023-03-16T12:59:14.291Z"
83,-0.8656812,0.29033935,0.20813233,307,"2023-03-16T13:00:14.854Z"
89,-0.66833496,-0.09658691,-0.22654785,307,"2023-03-16T13:01:15.416Z"
110,0.2579712,0.729895,-0.62903565,305,"2023-03-16T13:02:15.978Z"
118,0.4723706,0.8180078,0.31516358,303,"2023-03-16T13:03:16.540Z"
97,0.2531372,0.767373,-0.6006201,302,"2023-03-16T13:04:17.103Z"
86,0.30765137,0.7794702,-0.5581226,302,"2023-03-16T13:05:17.665Z"
94,-0.80722165,-0.5546655,0.13665771,303,"2023-03-16T13:06:18.227Z"
112,-0.6732349,0.67699707,0.20176513,302,"2023-03-16T13:07:18.789Z"
113,0.07178467,0.11981689,0.7868848,301,"2023-03-16T13:08:19.352Z"
118,0.64125,0.40421632,0.484563,299,"2023-03-16T13:09:19.914Z"
116,0.35673583,0.73026854,-0.5953369,300,"2023-03-16T13:10:20.476Z"
115,-0.7297705,0.55321777,0.054206543,300,"2023-03-16T13:11:21.038Z"
98,-0.8387329,0.45128417,0.19421142,299,"2023-03-16T13:12:21.601Z"
112,-0.57738525,0.65539795,0.011501465,299,"2023-03-16T13:13:22.163Z"
111,-0.55766845,0.8069556,-0.13458985,299,"2023-03-16T13:14:22.725Z"
79,0.15480469,0.49546388,-0.83914304,301,"2023-03-16T13:15:23.287Z"
97,-0.84381104,0.5084131,0.08043701,302,"2023-03-16T13:16:23.850Z"
87,-0.8681006,0.5256128,0.040192872,301,"2023-03-16T13:17:24.412Z"
115,-0.7312549,0.6214502,0.08619629,299,"2023-03-16T13:18:24.974Z"
74,-0.57144773,0.79573977,-0.13168457,300,"2023-03-16T13:19:25.536Z"
81,-0.78756595,0.5763843,0.12704834,305,"2023-03-16T13:20:26.099Z"
91,-1.0141162,0.16990723,-0.35621095,305,"2023-03-16T13:21:26.661Z"
93,-0.73444825,0.64960206,-0.0127661135,304,"2023-03-16T13:22:27.223Z"
119,0.95063967,-0.34354737,0.17064454,302,"2023-03-16T13:23:27.786Z"
102,-0.64959717,0.71832764,-0.1910376,304,"2023-03-16T13:24:28.348Z"
97,-0.9630713,0.27350098,0.07441895,305,"2023-03-16T13:25:28.910Z"
92,0.0018188476,0.9302417,-0.373396,305,"2023-03-16T13:26:29.472Z"
83,-0.035097655,0.8877051,-0.46623048,303,"2023-03-16T13:27:30.035Z"
88,-0.8343457,0.33182862,0.38805908,306,"2023-03-16T13:28:30.597Z"
93,-0.8652515,0.59492433,-0.021538086,309,"2023-03-16T13:29:31.159Z"
96,-0.387771,0.8078711,0.26243895,307,"2023-03-16T13:30:31.721Z"
99,-0.46494874,0.83586425,-0.17927735,307,"2023-03-16T13:31:32.284Z"
107,-0.51604736,0.7812329,0.05032471,307,"2023-03-16T13:32:32.846Z"
111,0.28745362,0.6949194,-0.6700781,306,"2023-03-16T13:33:33.408Z"
119,-0.09339356,0.6918994,0.50565183,326,"2023-03-16T13:34:33.970Z"
121,0.23639405,0.95762694,-0.22959717,363,"2023-03-16T13:35:34.533Z"
129,0.17404541,-0.6860254,0.504209,362,"2023-03-16T13:36:35.095Z"
145,-0.92414063,0.44646484,-0.05533447,347,"2023-03-16T13:37:35.656Z"
129,-0.3926416,0.881438,-0.032260742,341,"2023-03-16T13:38:36.219Z"
122,0.29859132,0.77634764,0.49654296,332,"2023-03-16T13:39:36.781Z"
118,-0.8480615,0.4253125,-0.15988526,328,"2023-03-16T13:40:37.344Z"
107,-0.64641845,0.7503442,-0.05186279,323,"2023-03-16T13:41:37.906Z"
105,0.9145679,0.55566406,0.20670167,318,"2023-03-16T13:42:38.468Z"
92,0.10095947,0.646792,-0.80729,310,"2023-03-16T13:43:39.031Z"
91,-0.06577393,0.7756079,-0.6343604,304,"2023-03-16T13:44:39.593Z"
80,0.033374023,0.7991797,-0.60776365,300,"2023-03-16T13:45:40.155Z"
76,0.12918945,0.78331786,-0.6194043,293,"2023-03-16T13:46:40.717Z"
83,-0.88876706,0.41636232,0.034116212,295,"2023-03-16T13:47:41.280Z"
88,-0.3749463,0.89729494,-0.19855225,285,"2023-03-16T13:48:41.842Z"
82,-0.048283692,0.9045239,0.15798096,296,"2023-03-16T13:49:42.404Z"
79,-0.87861085,0.438645,0.014382324,296,"2023-03-16T13:50:42.967Z"
93,-0.927439,0.14710206,0.07473145,297,"2023-03-16T13:51:43.529Z"
87,-0.29694337,0.8158008,0.46766844,298,"2023-03-16T13:52:44.091Z"
80,-0.7293262,0.5962866,0.28664306,299,"2023-03-16T13:53:44.653Z"
86,-0.32384032,0.7216919,0.5506714,297,"2023-03-16T13:54:45.216Z"
90,-0.6634815,0.37061524,0.6169043,294,"2023-03-16T13:55:45.778Z"
92,0.24659179,0.68771,0.66254395,291,"2023-03-16T13:56:46.340Z"
87,-0.810166,0.56016356,-0.10846924,288,"2023-03-16T13:57:46.902Z"
92,-0.92128664,0.027770996,0.2807544,293,"2023-03-16T13:58:47.465Z"
103,0.15362549,0.85830325,0.33456543,295,"2023-03-16T13:59:48.027Z"
107,-0.46562743,0.8045703,-0.11608154,297,"2023-03-16T14:00:48.589Z"
106,-0.5428052,0.79754394,-0.22450928,296,"2023-03-16T14:01:49.152Z"
79,0.23437256,0.8009546,-0.61600584,299,"2023-03-16T14:02:49.714Z"
74,-0.34791747,0.90250975,0.29882324,296,"2023-03-16T14:03:50.276Z"
71,-0.01796875,0.9254712,0.3889038,293,"2023-03-16T14:04:50.838Z"
79,-0.6590796,0.69379884,0.15871826,293,"2023-03-16T14:05:51.401Z"
75,0.43754396,0.8783765,0.21278809,295,"2023-03-16T14:06:51.963Z"
75,0.026950683,0.9870703,0.041896973,296,"2023-03-16T14:07:52.527Z"
72,0.3977173,0.7619214,0.49660644,296,"2023-03-16T14:08:53.087Z"
77,0.20704101,0.96516114,0.16624023,295,"2023-03-16T14:09:53.650Z"
76,0.22013916,0.9709863,0.08501953,292,"2023-03-16T14:10:54.212Z"
73,0.24895264,0.9309961,0.26313722,291,"2023-03-16T14:11:54.774Z"
71,0.24677247,0.94577146,0.22049072,291,"2023-03-16T14:12:55.337Z"
74,0.19664307,0.94125485,0.2662793,291,"2023-03-16T14:13:55.899Z"
80,0.27362305,0.82589114,0.23699218,290,"2023-03-16T14:14:56.461Z"
79,0.25278565,0.97019774,0.04207764,290,"2023-03-16T14:15:57.023Z"
77,0.3197046,0.92085695,0.27363527,290,"2023-03-16T14:16:57.586Z"
77,0.6908057,0.6626831,0.11282715,290,"2023-03-16T14:17:58.147Z"
75,0.30052245,0.9484961,-0.15456787,288,"2023-03-16T14:18:58.710Z"
77,0.3894287,0.5741357,0.7283423,293,"2023-03-16T14:19:59.273Z"
78,0.19885254,0.7460107,0.6158594,289,"2023-03-16T14:20:59.835Z"
78,0.16216065,0.6452954,-0.7374878,293,"2023-03-16T14:22:00.397Z"
75,0.33157226,0.816001,0.44294435,292,"2023-03-16T14:23:00.959Z"
83,0.75706786,0.49252686,0.4421802,295,"2023-03-16T14:24:01.522Z"
71,0.46093506,0.8193384,-0.10107666,294,"2023-03-16T14:25:02.084Z"
73,0.9593872,0.056501463,0.3449951,295,"2023-03-16T14:26:02.646Z"
66,0.93541014,-0.015559082,0.40969238,292,"2023-03-16T14:27:03.208Z"
73,0.9551001,-0.023532715,0.3614917,292,"2023-03-16T14:28:03.770Z"
78,0.3847583,0.90846926,-0.20931153,293,"2023-03-16T14:29:04.333Z"
83,0.21926513,0.9539526,0.15016846,294,"2023-03-16T14:30:04.896Z"
78,1.0201856,0.0571875,0.06201172,295,"2023-03-16T14:31:05.458Z"
80,0.8578906,0.4764502,0.2551123,295,"2023-03-16T14:32:06.020Z"
75,0.69363284,0.6227466,-0.3152124,294,"2023-03-16T14:33:06.582Z"
76,-0.28941405,0.8960327,-0.28405762,292,"2023-03-16T14:34:07.145Z"
79,0.14464599,0.8111401,-0.6178491,290,"2023-03-16T14:35:07.707Z"
82,-0.4106909,0.7785571,-0.41023925,286,"2023-03-16T14:36:08.269Z"
91,0.18416747,0.93391114,-0.10041992,290,"2023-03-16T14:37:08.832Z"
89,-0.51968265,0.83103025,0.07122803,292,"2023-03-16T14:38:09.394Z"
95,-0.7581299,0.5400684,0.25293458,296,"2023-03-16T14:39:09.956Z"
91,-0.39562255,0.7804492,-0.48143065,297,"2023-03-16T14:40:10.518Z"
96,-0.40376464,0.4060425,0.7707617,300,"2023-03-16T14:41:11.081Z"
111,-0.7311743,0.17008789,0.6110864,304,"2023-03-16T14:42:11.643Z"
106,-0.7615625,0.11520752,0.63571775,300,"2023-03-16T14:43:12.205Z"
96,-0.6507007,0.420813,0.6095703,300,"2023-03-16T14:44:12.767Z"
104,-0.42043945,0.7163892,0.5231543,298,"2023-03-16T14:45:13.330Z"
99,0.1350293,0.9302954,0.19113037,298,"2023-03-16T14:46:13.892Z"
90,-0.933501,0.33479005,0.044379883,299,"2023-03-16T14:47:14.454Z"
87,0.040236816,0.7121875,-0.75227296,299,"2023-03-16T14:48:15.016Z"
106,-0.07338623,0.9921704,0.1220044,299,"2023-03-16T14:49:15.579Z"
87,-0.04770752,0.9777002,-0.2727832,298,"2023-03-16T14:50:16.141Z"
105,-0.8457544,0.42571044,0.24104981,294,"2023-03-16T14:51:16.703Z"
111,-0.2715747,0.9273291,0.26161864,293,"2023-03-16T14:52:17.266Z"
114,-0.57263184,0.7965625,0.13675049,292,"2023-03-16T14:53:17.828Z"
93,-0.87472653,0.43132567,-0.118928224,295,"2023-03-16T14:54:18.390Z"
84,-0.4588379,0.5464551,0.6740308,295,"2023-03-16T14:55:18.952Z"
80,-0.65970457,0.7056372,-0.21002442,299,"2023-03-16T14:56:19.515Z"
78,0.5889868,0.81786376,0.12789063,298,"2023-03-16T14:57:20.077Z"
98,-0.897749,0.3935205,0.032910157,297,"2023-03-16T14:58:20.639Z"
72,-0.3977173,0.911709,0.03679199,297,"2023-03-16T14:59:21.201Z"
78,-0.6171045,0.45981935,0.59867674,291,"2023-03-16T15:00:21.764Z"
93,-0.7371216,0.4697827,0.45610106,285,"2023-03-16T15:01:22.326Z"
95,-0.7838086,0.19401856,0.55105954,286,"2023-03-16T15:02:22.888Z"
99,-0.71178955,0.2963208,0.6000293,286,"2023-03-16T15:03:23.451Z"
92,-0.7863379,0.1373828,0.54118407,286,"2023-03-16T15:04:24.013Z"
86,-0.9218872,-0.149021,0.29914308,286,"2023-03-16T15:05:24.575Z"
74,-0.65154785,0.23229492,0.69125485,286,"2023-03-16T15:06:25.137Z"
85,-0.34569824,0.77984864,0.59174806,288,"2023-03-16T15:07:25.700Z"
92,-0.7260498,0.3186621,0.585979,289,"2023-03-16T15:08:26.262Z"
94,-0.70311767,0.30502197,0.59378904,288,"2023-03-16T15:09:26.824Z"
92,-0.41148436,0.47370362,0.7527149,286,"2023-03-16T15:10:27.386Z"
81,-0.6833862,0.20299804,0.6551269,282,"2023-03-16T15:11:27.949Z"
83,-0.081774905,0.8413159,-0.5390796,282,"2023-03-16T15:12:28.511Z"
90,0.7714258,0.103510745,0.6002295,283,"2023-03-16T15:13:29.073Z"
80,0.87560546,0.41919678,0.30464113,286,"2023-03-16T15:14:29.636Z"
73,0.16498291,0.9059204,-0.3416992,287,"2023-03-16T15:15:30.183Z"
76,0.3443042,0.8925464,-0.23497315,288,"2023-03-16T15:16:30.745Z"
74,-0.014926758,0.73676515,-0.6755859,288,"2023-03-16T15:17:31.308Z"
77,-0.68150634,0.5700659,-0.43031007,289,"2023-03-16T15:18:31.870Z"
71,-0.86446536,0.087229006,0.45349854,291,"2023-03-16T15:19:32.432Z"
84,-0.2650586,0.9215625,0.25782228,297,"2023-03-16T15:20:32.995Z"
80,-0.77157474,0.56825197,0.16312744,300,"2023-03-16T15:21:33.557Z"
74,-0.4803955,0.86413085,-0.044414062,300,"2023-03-16T15:22:34.119Z"
68,0.52603513,0.61874753,-0.6060352,300,"2023-03-16T15:23:34.681Z"
78,-0.7995312,0.2852539,-0.5747974,299,"2023-03-16T15:24:35.244Z"
79,-0.78056395,0.3358496,-0.53323245,301,"2023-03-16T15:25:35.806Z"
80,0.022189941,0.9389502,0.33654296,302,"2023-03-16T15:26:36.368Z"
70,-0.94632566,0.27160156,0.027890624,306,"2023-03-16T15:27:36.930Z"
76,-0.3059668,0.68240964,-0.5525635,304,"2023-03-16T15:28:37.493Z"
81,-0.78381103,0.5467529,0.16259032,303,"2023-03-16T15:29:38.055Z"
82,-0.631543,0.14525391,-0.73665285,305,"2023-03-16T15:30:38.617Z"
93,0.021479493,0.99211913,-0.095888674,305,"2023-03-16T15:31:39.179Z"
81,-0.769834,0.49706054,-0.26186278,308,"2023-03-16T15:32:39.742Z"
76,-0.8681494,0.4585718,0.00046875,306,"2023-03-16T15:33:40.304Z"
86,-0.3558203,0.9163843,0.11434082,307,"2023-03-16T15:34:40.866Z"
66,0.3395044,0.8680908,-0.38338134,306,"2023-03-16T15:35:41.428Z"
72,-0.52250487,0.80320066,-0.1334497,305,"2023-03-16T15:36:41.991Z"
78,-0.30589113,0.90566653,0.18285644,306,"2023-03-16T15:37:42.553Z"
80,-0.18392333,0.8763086,-0.38835692,307,"2023-03-16T15:38:43.115Z"
81,0.20868653,0.79956543,-0.5720068,309,"2023-03-16T15:39:43.677Z"
62,-0.30200195,0.816543,-0.48653808,309,"2023-03-16T15:40:44.240Z"
78,-0.19890624,0.75082517,-0.6275757,309,"2023-03-16T15:41:44.802Z"
79,0.07742676,0.8431201,-0.46727294,308,"2023-03-16T15:42:45.364Z"
82,-0.5845166,0.76626223,0.17493409,310,"2023-03-16T15:43:45.927Z"
70,-0.7998657,0.15849121,0.5376221,312,"2023-03-16T15:44:46.489Z"
72,-0.727771,0.577356,0.15691163,314,"2023-03-16T15:45:47.051Z"
84,-0.5455298,0.6899365,0.3239258,313,"2023-03-16T15:46:47.613Z"
84,-0.6350391,0.73305666,0.11432617,317,"2023-03-16T15:47:48.176Z"
81,-0.6364477,0.7074951,-0.06759033,317,"2023-03-16T15:48:48.738Z"
78,-0.13616943,0.56964356,-0.8259863,319,"2023-03-16T15:49:49.300Z"
85,-0.5174707,0.80133057,-0.4359082,318,"2023-03-16T15:50:49.862Z"
66,0.5325366,0.8009619,-0.31224364,320,"2023-03-16T15:51:50.425Z"
67,0.40917236,0.77199954,0.4842212,318,"2023-03-16T15:52:50.987Z"
75,-0.24214844,0.8846729,-0.49876952,317,"2023-03-16T15:53:51.549Z"
85,-0.40320557,0.7575806,0.50988525,315,"2023-03-16T15:54:52.111Z"
72,-0.8560913,0.45927978,-0.013552246,314,"2023-03-16T15:55:52.674Z"
77,-0.45524657,0.7623169,-0.31960204,314,"2023-03-16T15:56:53.236Z"
81,-0.24625732,0.83131593,0.47458008,315,"2023-03-16T15:57:53.798Z"
81,0.5051367,0.76716554,-0.42119873,315,"2023-03-16T15:58:54.360Z"
62,0.30228516,0.67390627,0.65403074,315,"2023-03-16T15:59:54.923Z"
65,0.04588623,0.983584,-0.055029295,312,"2023-03-16T16:00:55.485Z"
67,-0.67326903,0.7289722,0.09878418,312,"2023-03-16T16:01:56.047Z"
78,0.39987305,0.8472925,-0.38646483,310,"2023-03-16T16:02:56.609Z"
93,0.51916504,-0.15696289,0.7938037,307,"2023-03-16T16:03:57.172Z"
84,-0.66464114,0.72110105,-0.08716797,310,"2023-03-16T16:04:57.734Z"
71,-0.9214673,0.4004248,0.119648434,312,"2023-03-16T16:05:58.296Z"
85,-0.67848146,0.39289063,-0.62184817,310,"2023-03-16T16:06:58.858Z"
80,-0.38341796,0.8165625,-0.37642822,304,"2023-03-16T16:07:59.421Z"
67,0.5099951,0.87017334,-0.038986817,303,"2023-03-16T16:08:59.983Z"
64,0.25048828,0.7894116,-0.52733153,301,"2023-03-16T16:10:00.545Z"
66,0.18289551,0.84637696,-0.50780517,299,"2023-03-16T16:11:01.107Z"
84,-0.030368652,0.2797412,0.89437747,298,"2023-03-16T16:12:01.670Z"
80,0.5785498,0.69241214,0.4503833,300,"2023-03-16T16:13:02.232Z"
77,0.5519385,0.6709717,0.45964843,302,"2023-03-16T16:14:02.794Z"
63,0.5518628,0.7944824,-0.30502197,303,"2023-03-16T16:15:03.356Z"
63,0.28270996,0.90871096,-0.3309375,303,"2023-03-16T16:16:03.919Z"
66,0.22143799,0.9353809,0.27666748,304,"2023-03-16T16:17:04.481Z"
72,0.8207593,0.49794677,0.34118164,303,"2023-03-16T16:18:05.043Z"
70,0.25860596,0.8649194,0.433042,302,"2023-03-16T16:19:05.605Z"
61,0.12508789,0.9845459,-0.07468018,302,"2023-03-16T16:20:06.168Z"
69,0.19513428,0.96559083,0.17478028,297,"2023-03-16T16:21:06.730Z"
70,0.37733155,0.85374266,0.4117798,296,"2023-03-16T16:22:07.292Z"
75,0.2728784,0.52626467,0.7910962,296,"2023-03-16T16:23:07.854Z"
76,-0.9954614,0.57487303,-0.039174806,295,"2023-03-16T16:24:08.417Z"
81,-0.46896484,0.9206592,0.17080566,295,"2023-03-16T16:25:08.979Z"
78,0.013540039,0.6541699,-0.7645068,295,"2023-03-16T16:26:09.541Z"
60,-0.07780762,0.63065183,-0.77823484,297,"2023-03-16T16:27:10.103Z"
86,-0.54217285,0.7296973,0.41378173,296,"2023-03-16T16:28:10.666Z"
82,0.16245605,0.93213135,-0.31579345,297,"2023-03-16T16:29:11.228Z"
78,0.1667456,0.8739526,-0.47105226,297,"2023-03-16T16:30:11.791Z"
80,0.15715088,0.9420068,-0.3149756,300,"2023-03-16T16:31:12.353Z"
79,0.03852783,0.93912107,-0.34495604,299,"2023-03-16T16:32:12.915Z"
60,0.2675415,0.7665771,-0.64995605,300,"2023-03-16T16:33:13.477Z"
74,-0.81720215,0.56475097,-0.010517579,299,"2023-03-16T16:34:14.040Z"
73,-0.28514403,0.8403662,-0.4343677,299,"2023-03-16T16:35:14.602Z"
69,0.14002685,0.6542603,-0.77380615,297,"2023-03-16T16:36:15.164Z"
73,0.39710695,0.5573047,-0.7404468,296,"2023-03-16T16:37:15.726Z"
75,-0.0025366212,0.6649048,-0.7077441,295,"2023-03-16T16:38:16.289Z"
76,0.22410156,0.9209912,-0.30920655,294,"2023-03-16T16:39:16.851Z"
70,0.41710448,0.7020068,-0.597771,295,"2023-03-16T16:40:17.413Z"
69,-0.14852783,0.84601563,-0.41983154,295,"2023-03-16T16:41:17.975Z"
73,0.25211182,0.74516356,-0.61572754,295,"2023-03-16T16:42:18.538Z"
61,0.3675635,0.8643262,-0.3658838,296,"2023-03-16T16:43:19.100Z"
62,0.5343628,0.48012695,-0.71605223,295,"2023-03-16T16:44:19.662Z"
73,0.11418213,0.9944189,-0.031191407,294,"2023-03-16T16:45:20.224Z"
74,0.21854492,0.62253904,-0.758916,295,"2023-03-16T16:46:20.787Z"
56,0.27990234,0.9359131,-0.23159423,295,"2023-03-16T16:47:21.333Z"
61,-0.69727784,0.69257325,0.052131347,296,"2023-03-16T16:48:21.896Z"
69,0.26825196,0.9659912,-0.072749026,295,"2023-03-16T16:49:22.459Z"
76,-0.5469556,0.6823755,-0.4922168,290,"2023-03-16T16:50:23.021Z"
79,-0.6256567,0.7145825,0.16918457,287,"2023-03-16T16:51:23.583Z"
79,0.14235839,0.770293,-0.6335645,284,"2023-03-16T16:52:24.146Z"
73,-0.05518799,0.9465601,-0.31798095,286,"2023-03-16T16:53:24.708Z"
78,0.05664551,0.99530274,0.0987793,287,"2023-03-16T16:54:25.270Z"
75,-0.6381836,0.74331784,0.03562256,287,"2023-03-16T16:55:25.832Z"
84,-0.484458,0.8026489,0.27250245,281,"2023-03-16T16:56:26.380Z"
83,-0.8601758,0.44575927,0.080390625,286,"2023-03-16T16:57:26.941Z"
73,0.74483156,0.55665284,0.42561036,286,"2023-03-16T16:58:27.504Z"
83,-0.8658594,0.43304688,0.061606444,286,"2023-03-16T16:59:28.067Z"
96,-0.9251587,0.44043702,0.06405762,284,"2023-03-16T17:00:28.629Z"
91,-0.92167234,0.4912549,0.102773435,283,"2023-03-16T17:01:29.191Z"
96,0.27952394,0.78304935,-0.31773925,281,"2023-03-16T17:02:29.753Z"
99,-0.500752,0.71554446,-0.22071777,279,"2023-03-16T17:03:30.316Z"
62,-0.033183593,0.615144,-0.78940916,280,"2023-03-16T17:04:30.878Z"
73,0.11667237,0.5100293,-0.86092776,280,"2023-03-16T17:05:31.440Z"
75,0.8763086,0.48186767,0.18308349,281,"2023-03-16T17:06:32.002Z"
67,-0.10772461,0.7280078,-0.58686036,282,"2023-03-16T17:07:32.550Z"
80,0.07150879,0.84537107,-0.53623044,279,"2023-03-16T17:08:33.112Z"
74,-0.34115478,0.8946216,0.24697265,280,"2023-03-16T17:09:33.674Z"
75,0.5561963,0.55468506,-0.6414795,281,"2023-03-16T17:10:34.237Z"
62,0.3257324,0.91845214,-0.25424317,283,"2023-03-16T17:11:34.799Z"
69,-0.36166748,0.89820313,0.17201172,285,"2023-03-16T17:12:35.346Z"
77,-0.32633057,0.8096997,0.18122314,286,"2023-03-16T17:13:35.909Z"
82,-0.4540088,0.8359961,0.093688965,288,"2023-03-16T17:14:36.471Z"
83,-0.7751831,0.5008667,0.30914307,289,"2023-03-16T17:15:37.033Z"
84,0.41510743,0.81316894,-0.31015626,292,"2023-03-16T17:16:37.595Z"
74,0.2889795,0.9145508,0.29206544,294,"2023-03-16T17:17:38.158Z"
74,-0.4839502,0.79671144,-0.3325415,294,"2023-03-16T17:18:38.720Z"
74,0.2417627,0.85671633,0.45931152,297,"2023-03-16T17:19:39.282Z"
72,0.11385742,0.96598387,0.2275415,299,"2023-03-16T17:20:39.845Z"
76,0.51997805,0.84834474,-0.17561524,302,"2023-03-16T17:21:40.407Z"
66,-0.16590576,0.97845215,-0.05861084,304,"2023-03-16T17:22:40.969Z"
62,0.39971924,0.78233886,-0.49888915,309,"2023-03-16T17:23:41.531Z"
60,0.40167725,0.92266846,-0.052038573,313,"2023-03-16T17:24:42.094Z"
60,0.4393384,0.8302002,-0.36933106,315,"2023-03-16T17:25:42.656Z"
68,0.66726565,0.37961915,0.35049072,315,"2023-03-16T17:26:43.218Z"
62,0.42372313,0.8293091,-0.37409914,317,"2023-03-16T17:27:43.781Z"
60,0.42338622,0.8549707,-0.3041748,320,"2023-03-16T17:28:44.343Z"
62,0.4038672,0.8405127,-0.38669923,320,"2023-03-16T17:29:44.905Z"
57,0.46533936,0.7789966,-0.44324952,322,"2023-03-16T17:30:45.467Z"
59,0.51064456,0.8698877,-0.038547363,323,"2023-03-16T17:31:46.030Z"
60,0.374021,0.84650147,-0.40268067,323,"2023-03-16T17:32:46.592Z"
54,0.26000243,0.8702246,-0.4344873,325,"2023-03-16T17:33:47.154Z"
56,0.43331787,0.7602661,-0.5003393,326,"2023-03-16T17:34:47.716Z"
65,0.6240381,0.65043455,0.37937745,325,"2023-03-16T17:35:48.279Z"
64,0.4970874,0.84480226,0.2362915,327,"2023-03-16T17:36:48.840Z"
59,0.28261474,0.8873413,-0.3133545,327,"2023-03-16T17:37:49.403Z"
59,0.300437,0.9562207,0.042460937,327,"2023-03-16T17:38:49.965Z"
55,-0.033498537,0.64132327,0.753999,328,"2023-03-16T17:39:50.528Z"
67,-0.33241212,0.70923096,0.651582,328,"2023-03-16T17:40:51.090Z"
121,0.11000732,0.7588013,0.53698975,328,"2023-03-16T17:41:51.652Z"
120,-0.545083,0.7703076,-0.15435302,329,"2023-03-16T17:42:52.214Z"
117,-0.41250244,0.8807837,-0.19519532,329,"2023-03-16T17:43:52.777Z"
112,-0.5943408,0.769126,-0.123725586,328,"2023-03-16T17:44:53.339Z"
116,-0.41606444,0.8346094,0.13258056,327,"2023-03-16T17:45:53.901Z"
88,0.052175295,0.8528003,-0.5232666,327,"2023-03-16T17:46:54.463Z"
55,0.5803784,0.7958594,-0.22889893,325,"2023-03-16T17:47:55.025Z"
76,-0.44141358,0.7158203,0.4930908,323,"2023-03-16T17:48:55.588Z"
83,-0.31947753,0.9071338,-0.2511377,322,"2023-03-16T17:49:56.150Z"
73,-0.40655518,0.8469043,0.06375489,323,"2023-03-16T17:50:56.712Z"
83,-0.94816405,0.33848876,0.25638673,321,"2023-03-16T17:51:57.274Z"
75,-0.115026854,0.9842212,-0.18976074,319,"2023-03-16T17:52:57.837Z"
80,-0.5139795,0.8479419,0.014340821,314,"2023-03-16T17:53:58.399Z"
94,-0.26083007,0.67995363,0.7108203,311,"2023-03-16T17:54:58.961Z"
84,-0.06067383,0.5608984,-0.6243774,308,"2023-03-16T17:55:59.523Z"
101,-0.86799806,0.40286866,0.08540283,307,"2023-03-16T17:57:00.086Z"
98,-0.84607667,0.43610108,0.116606444,306,"2023-03-16T17:58:00.648Z"
99,0.40090576,0.90511477,0.07095215,304,"2023-03-16T17:59:01.210Z"
89,-0.8546289,0.40252197,0.049626466,306,"2023-03-16T18:00:01.772Z"
90,-0.61562014,0.81955564,0.048464354,305,"2023-03-16T18:01:02.335Z"
93,-0.8366309,0.4802881,0.13976806,302,"2023-03-16T18:02:02.897Z"
86,0.29083985,0.96534914,-0.055737305,298,"2023-03-16T18:03:03.459Z"
104,-0.31171387,0.93442625,0.25156006,295,"2023-03-16T18:04:04.022Z"
106,-0.9407104,0.2782837,0.031191407,293,"2023-03-16T18:05:04.584Z"
96,-0.45119873,0.731333,-0.5123657,294,"2023-03-16T18:06:05.146Z"
94,-0.82292235,0.56435305,0.3438208,292,"2023-03-16T18:07:05.708Z"
94,-0.13475098,0.91172606,-0.30228516,294,"2023-03-16T18:08:06.271Z"
101,-0.46764404,0.83666015,-0.21607666,296,"2023-03-16T18:09:06.833Z"
104,-0.28557128,0.9536133,-0.21296631,298,"2023-03-16T18:10:07.395Z"
119,0.59289306,0.81473386,-0.089819334,298,"2023-03-16T18:11:07.958Z"
99,0.38495117,0.7368335,0.5562964,305,"2023-03-16T18:12:08.520Z"
101,-0.3200952,0.7679541,-0.21786132,299,"2023-03-16T18:13:09.082Z"
101,-0.3912915,0.8867627,0.21071534,298,"2023-03-16T18:14:09.644Z"
98,-0.85867673,0.3914453,0.14936768,301,"2023-03-16T18:15:10.207Z"
92,-0.76046634,0.59523195,-0.21082519,299,"2023-03-16T18:16:10.769Z"
85,-0.8449878,0.31825197,-0.37794435,301,"2023-03-16T18:17:11.331Z"
95,-0.72979736,0.64631593,-0.12711425,298,"2023-03-16T18:18:11.893Z"
89,0.05432373,0.75453615,0.70271975,298,"2023-03-16T18:19:12.456Z"
72,-0.73168945,0.29053712,0.46567872,297,"2023-03-16T18:20:13.018Z"
87,-0.68385255,0.29433593,0.62885743,298,"2023-03-16T18:21:13.580Z"
82,-0.7140625,0.1553711,0.65655273,294,"2023-03-16T18:22:14.143Z"
88,-0.6434961,0.037836913,0.73685545,291,"2023-03-16T18:23:14.705Z"
62,-0.71350586,0.101252444,0.65471435,285,"2023-03-16T18:24:15.267Z"
76,-0.52942383,0.40570557,0.7329883,287,"2023-03-16T18:25:15.829Z"
77,0.3959668,0.8384424,-0.40129638,284,"2023-03-16T18:26:16.392Z"
59,0.98895997,0.25551757,0.010629883,285,"2023-03-16T18:27:16.954Z"
65,-0.83127195,0.33188966,0.35206786,288,"2023-03-16T18:28:17.516Z"
71,-0.89730227,0.39403075,0.1057666,289,"2023-03-16T18:29:18.078Z"
74,-0.70781004,0.4054712,0.47019288,288,"2023-03-16T18:30:18.641Z"
68,-0.7820361,0.10501465,0.57386476,286,"2023-03-16T18:31:19.203Z"
68,-0.83488524,0.45262694,0.24044189,284,"2023-03-16T18:32:19.765Z"
66,-0.67396975,0.28731933,0.6672388,279,"2023-03-16T18:33:20.328Z"
54,-0.5773584,-0.2213794,0.7561206,281,"2023-03-16T18:34:20.890Z"
64,0.25288573,0.7048413,-0.6776221,281,"2023-03-16T18:35:21.452Z"
68,0.04279297,0.8616821,0.49301025,280,"2023-03-16T18:36:22.014Z"
56,-0.15861572,0.9973877,0.2318628,280,"2023-03-16T18:37:22.577Z"
65,-0.8096777,0.31165773,0.63097656,279,"2023-03-16T18:38:23.139Z"
69,0.018950196,0.9045996,0.2354248,277,"2023-03-16T18:39:23.701Z"
69,-0.90910155,0.12400391,0.33927977,277,"2023-03-16T18:40:24.264Z"
68,0.09037842,0.96179444,0.28418702,279,"2023-03-16T18:41:24.826Z"
74,0.7644165,0.59135985,0.30900148,280,"2023-03-16T18:42:25.388Z"
61,-0.59199464,0.39413086,0.70745116,281,"2023-03-16T18:43:25.950Z"
65,-0.74082273,0.29512206,0.5657471,282,"2023-03-16T18:44:26.513Z"
74,-0.7607422,0.22624023,0.5761743,281,"2023-03-16T18:45:27.075Z"
69,-0.8893042,0.40362304,0.11354492,280,"2023-03-16T18:46:27.637Z"
72,-0.6178589,0.14736085,0.7457739,281,"2023-03-16T18:47:28.199Z"
88,-0.35417235,0.7329175,-0.5058789,281,"2023-03-16T18:48:28.762Z"
65,-0.7927734,0.53068846,0.027651368,284,"2023-03-16T18:49:29.324Z"
71,-0.63927245,0.39574218,0.6216284,283,"2023-03-16T18:50:29.886Z"
73,-0.72318846,0.17002197,0.63835937,283,"2023-03-16T18:51:30.449Z"
76,-0.7098706,0.21624511,0.6338623,282,"2023-03-16T18:52:31.011Z"
77,-0.70362306,0.19581787,0.64914304,278,"2023-03-16T18:53:31.573Z"
82,-0.86031497,0.3431421,0.31890136,280,"2023-03-16T18:54:32.135Z"
85,-0.91827637,0.089084476,0.31904298,279,"2023-03-16T18:55:32.698Z"
95,-0.44737303,0.61691165,0.6121753,276,"2023-03-16T18:56:33.260Z"
94,-0.67444825,0.21668214,0.6684839,275,"2023-03-16T18:57:33.822Z"
97,-0.6818823,0.13954346,0.6929883,272,"2023-03-16T18:58:34.385Z"
81,-0.6218213,0.22141357,0.7233301,271,"2023-03-16T18:59:34.947Z"
101,-0.2183374,0.9345044,-0.24789551,269,"2023-03-16T19:00:35.509Z"
98,0.40083253,0.8045459,-0.4075293,268,"2023-03-16T19:01:36.072Z"
105,-0.87842774,0.43591797,0.007854003,268,"2023-03-16T19:02:36.634Z"
99,0.45737305,0.86666507,-0.24797851,268,"2023-03-16T19:03:37.196Z"
83,-0.086708985,0.9610889,-0.26311767,268,"2023-03-16T19:04:37.759Z"
89,-0.13830811,0.87962157,-0.34369385,265,"2023-03-16T19:05:38.321Z"
86,-0.8764453,0.43983886,-0.06775635,265,"2023-03-16T19:06:38.883Z"
76,-0.08415283,0.9375098,-0.35822755,267,"2023-03-16T19:07:39.445Z"
55,-0.8677588,0.4694336,0.05254883,261,"2023-03-16T19:08:40.008Z"
75,-0.6950342,0.694978,0.041306153,263,"2023-03-16T19:09:40.570Z"
69,-0.8758594,0.45280516,-0.018054198,262,"2023-03-16T19:10:41.132Z"
72,-0.08371826,0.90589356,-0.4154419,258,"2023-03-16T19:11:41.695Z"
67,-0.53756595,0.7539453,0.31799316,259,"2023-03-16T19:12:42.242Z"
79,0.02064453,0.9665234,-0.27315673,260,"2023-03-16T19:13:42.804Z"
84,-0.6158472,0.37190428,-0.662959,260,"2023-03-16T19:14:43.367Z"
85,-0.17411621,0.5320459,-0.8218872,259,"2023-03-16T19:15:43.929Z"
94,0.7230078,0.7059106,-0.14857666,260,"2023-03-16T19:16:44.491Z"
92,0.19078125,0.63690674,0.24394532,261,"2023-03-16T19:17:45.054Z"
82,-0.8700122,0.46448976,0.14547363,258,"2023-03-16T19:18:45.616Z"
77,-0.8723535,0.4157422,0.12662597,263,"2023-03-16T19:19:46.178Z"
80,-0.87509763,0.44292235,0.092878416,262,"2023-03-16T19:20:46.740Z"
83,-0.7348877,0.64483154,-0.13766357,261,"2023-03-16T19:21:47.303Z"
81,-0.49866456,0.119643554,0.8166943,258,"2023-03-16T19:22:47.865Z"
85,-0.61639893,0.5267114,0.54929197,258,"2023-03-16T19:23:48.427Z"
85,-0.66303223,0.1710376,0.68200684,255,"2023-03-16T19:24:48.990Z"
87,-0.6461499,0.093291014,0.69375247,254,"2023-03-16T19:25:49.552Z"
87,-0.69449705,0.27691162,0.6426343,251,"2023-03-16T19:26:50.114Z"
87,-0.62986815,0.25738525,0.7059595,251,"2023-03-16T19:27:50.677Z"
86,-0.5388159,0.19968994,0.7065601,247,"2023-03-16T19:28:51.239Z"
91,-0.6885693,0.22965331,0.65730715,243,"2023-03-16T19:29:51.801Z"
93,-0.73022217,0.13045898,0.6530957,245,"2023-03-16T19:30:52.364Z"
85,-0.7183789,0.21039063,0.6407764,240,"2023-03-16T19:31:52.926Z"
89,-0.77158445,0.2064502,0.5637622,238,"2023-03-16T19:32:53.488Z"
88,-0.7834253,0.25864992,0.51846194,238,"2023-03-16T19:33:54.051Z"
80,-0.5834082,0.3011206,0.6903296,235,"2023-03-16T19:34:54.613Z"
80,-0.65113527,0.5037646,0.47461426,238,"2023-03-16T19:35:55.175Z"
77,0.30762452,0.8840039,0.19814453,238,"2023-03-16T19:36:55.737Z"
85,-0.80877686,0.24381836,0.39575684,240,"2023-03-16T19:37:56.300Z"
87,1.0405762,-0.038029786,-0.05871582,244,"2023-03-16T19:38:56.862Z"
99,0.33535156,0.84016603,0.3566675,243,"2023-03-16T19:39:57.424Z"
96,-0.81141114,0.2856128,-0.49795654,249,"2023-03-16T19:40:57.987Z"
99,-0.9365088,0.29881835,0.22032471,251,"2023-03-16T19:41:58.549Z"
107,0.895813,-0.26292723,0.37285888,254,"2023-03-16T19:42:59.111Z"
104,0.985979,-0.044645995,0.038220216,256,"2023-03-16T19:43:59.674Z"
114,-0.83742434,0.476521,0.085251465,255,"2023-03-16T19:45:00.236Z"
99,0.3078418,0.85252684,0.25331056,258,"2023-03-16T19:46:00.798Z"
77,0.2790332,0.64188474,-0.7273218,262,"2023-03-16T19:47:01.361Z"
81,-1.018711,0.10643311,0.01321289,262,"2023-03-16T19:48:01.923Z"
86,-0.9077222,0.36550048,0.23938721,265,"2023-03-16T19:49:02.485Z"
83,0.4516675,0.7110449,-0.51298094,268,"2023-03-16T19:50:03.047Z"
81,-0.41206056,0.8830591,0.40325195,278,"2023-03-16T19:51:03.610Z"
86,-0.83666503,0.36945313,-0.26414308,281,"2023-03-16T19:52:04.172Z"
92,-0.088718265,0.957583,-0.02435547,279,"2023-03-16T19:53:04.734Z"
91,-0.18158203,1.0061011,0.20780517,280,"2023-03-16T19:54:05.296Z"
89,0.10536377,0.9942847,-0.03317383,280,"2023-03-16T19:55:05.859Z"
89,-0.3148364,0.7751489,-0.22276123,281,"2023-03-16T19:56:06.421Z"
92,-0.60724366,0.5625293,0.43963867,281,"2023-03-16T19:57:06.983Z"
94,-0.4998413,0.7649536,0.41388673,282,"2023-03-16T19:58:07.546Z"
91,-0.38649413,0.8100171,-0.42595458,282,"2023-03-16T19:59:08.108Z"
98,-0.3171802,0.82299316,-0.21443848,283,"2023-03-16T20:00:08.670Z"
97,-0.29966795,0.765249,0.30599365,283,"2023-03-16T20:01:09.232Z"
103,-0.029938964,0.9326025,0.35191163,283,"2023-03-16T20:02:09.795Z"
110,-0.12044189,0.9608838,0.22262695,285,"2023-03-16T20:03:10.357Z"
95,-0.0017163086,0.9179981,0.3944287,284,"2023-03-16T20:04:10.919Z"
93,0.83237547,0.1783081,0.55693114,282,"2023-03-16T20:05:11.482Z"
78,0.0053002927,0.81053954,-0.5877417,282,"2023-03-16T20:06:12.044Z"
89,-0.085791014,0.98479,-0.095930174,282,"2023-03-16T20:07:12.606Z"
76,-0.24355713,0.6735083,0.4571924,282,"2023-03-16T20:08:13.168Z"
72,-0.21892335,0.6832666,0.68130374,282,"2023-03-16T20:09:13.731Z"
50,-0.66971433,0.6976465,0.027004395,285,"2023-03-16T20:10:14.293Z"
70,-0.44730714,-0.009025879,0.8718799,283,"2023-03-16T20:11:14.855Z"
72,0.18780518,0.936582,0.20939942,282,"2023-03-16T20:12:15.417Z"
62,-0.6120703,0.7671802,0.0085717775,284,"2023-03-16T20:13:15.980Z"
75,-0.23088135,0.16345948,0.9492578,284,"2023-03-16T20:14:16.542Z"
70,-0.04232178,1.0012524,-0.009709473,287,"2023-03-16T20:15:17.104Z"
78,-0.18010254,0.43478516,0.8491431,287,"2023-03-16T20:16:17.667Z"
72,-0.84957767,0.40348145,0.34812987,291,"2023-03-16T20:17:18.229Z"
76,-0.569209,0.60830325,-0.41178712,293,"2023-03-16T20:18:18.791Z"
72,-0.32012695,0.89421874,0.29810303,293,"2023-03-16T20:19:19.354Z"
76,-0.3493921,0.10866455,0.8538257,296,"2023-03-16T20:20:19.916Z"
75,-0.72453123,0.6556372,0.08988281,297,"2023-03-16T20:21:20.478Z"
48,0.17194337,0.9114697,-0.38335693,295,"2023-03-16T20:22:21.040Z"
63,-0.14180665,0.99980223,-0.13465576,295,"2023-03-16T20:23:21.603Z"
73,0.14669922,0.16965576,0.9514136,295,"2023-03-16T20:24:22.165Z"
79,-0.6459375,0.7483423,0.027089844,294,"2023-03-16T20:25:22.727Z"
89,-0.5618799,0.70573485,0.3024341,296,"2023-03-16T20:26:23.289Z"
73,0.15259765,0.98955566,-0.036518555,297,"2023-03-16T20:27:23.852Z"
62,0.32845458,0.934563,-0.17897706,298,"2023-03-16T20:28:24.414Z"
61,0.27160156,0.9594312,-0.12037353,298,"2023-03-16T20:29:24.976Z"
69,-0.53624266,0.6080298,0.5392163,300,"2023-03-16T20:30:25.538Z"
66,0.33539551,0.93264407,0.16492188,300,"2023-03-16T20:31:26.100Z"
70,0.27817383,0.9642041,-0.023728028,301,"2023-03-16T20:32:26.663Z"
62,0.108249515,0.9722388,0.10487305,302,"2023-03-16T20:33:27.225Z"
69,0.04330322,0.98217285,0.18610595,304,"2023-03-16T20:34:27.787Z"
65,0.25032958,0.9674048,0.078842774,305,"2023-03-16T20:35:28.350Z"
65,0.055854492,0.9290918,0.31543213,307,"2023-03-16T20:36:28.912Z"
73,-0.22025147,0.8870752,-0.3964673,308,"2023-03-16T20:37:29.474Z"
69,-0.5501807,0.7817554,0.25561523,308,"2023-03-16T20:38:30.037Z"
61,0.092788085,0.9823169,0.16195801,309,"2023-03-16T20:39:30.599Z"
61,-0.525061,0.7310522,0.40179688,308,"2023-03-16T20:40:31.161Z"
67,-0.87400633,0.42812255,0.08467773,306,"2023-03-16T20:41:31.723Z"
74,0.011481933,0.9781177,-0.13921143,307,"2023-03-16T20:42:32.286Z"
62,-0.30802736,0.8994971,0.25189942,305,"2023-03-16T20:43:32.848Z"
69,-0.22858886,0.93747556,-0.23695801,306,"2023-03-16T20:44:33.410Z"
67,0.6474634,0.78285646,0.011523438,304,"2023-03-16T20:45:33.972Z"
84,0.2471045,0.98584473,0.02239502,303,"2023-03-16T20:46:34.535Z"
84,0.10479492,1.0021949,-0.026252441,303,"2023-03-16T20:47:35.097Z"
66,-0.7326343,0.70042723,0.12021484,310,"2023-03-16T20:48:35.659Z"
69,-0.78484374,0.58067626,-0.057607424,312,"2023-03-16T20:49:36.221Z"
63,-0.23506592,0.8049072,0.3723706,311,"2023-03-16T20:50:36.784Z"
67,-0.18616456,0.6114404,-0.74685305,310,"2023-03-16T20:51:37.345Z"
59,0.72965574,0.43109864,0.55577147,310,"2023-03-16T20:52:37.908Z"
60,-0.53368896,0.62423825,-0.55927,309,"2023-03-16T20:53:38.470Z"
67,0.2024707,0.97719973,-0.075424805,305,"2023-03-16T20:54:39.033Z"
58,-0.86105955,0.26698,0.385708,306,"2023-03-16T20:55:39.595Z"
65,0.2551123,0.9042163,-0.3492285,305,"2023-03-16T20:56:40.157Z"
61,0.94453126,-0.1338916,0.35891846,304,"2023-03-16T20:57:40.719Z"
70,0.0515625,0.36995116,0.998064,304,"2023-03-16T20:58:41.282Z"
61,0.2617749,0.84360105,-0.48460206,305,"2023-03-16T20:59:41.844Z"
51,-0.5853149,0.5430786,-0.4903296,304,"2023-03-16T21:00:42.406Z"
49,0.5803662,0.5778711,-0.59740967,305,"2023-03-16T21:01:42.969Z"
64,-0.6252856,0.7176855,0.1182251,304,"2023-03-16T21:02:43.531Z"
69,-0.3652466,0.7353833,0.54078126,306,"2023-03-16T21:03:44.093Z"
51,0.1815332,0.90246093,0.34576905,305,"2023-03-16T21:04:44.655Z"
59,-0.42286623,0.7340161,0.5021191,305,"2023-03-16T21:05:45.218Z"
48,-0.45573,0.85778564,0.17324951,308,"2023-03-16T21:06:45.780Z"
48,-0.75606936,0.34966063,0.513103,310,"2023-03-16T21:07:46.342Z"
57,-0.38912597,0.70089114,0.56081057,310,"2023-03-16T21:08:46.904Z"
60,-0.85897464,0.525874,0.16977051,313,"2023-03-16T21:09:47.467Z"
75,-0.33327636,0.69244874,0.61360353,313,"2023-03-16T21:10:48.029Z"
69,0.51584715,0.8073437,-0.3254175,314,"2023-03-16T21:11:48.591Z"
47,0.5071094,0.74581057,-0.45869872,315,"2023-03-16T21:12:49.153Z"
72,0.7595264,0.45337647,0.4943164,315,"2023-03-16T21:13:49.716Z"
65,0.041772462,-0.023557128,0.9852026,316,"2023-03-16T21:14:50.278Z"
79,-0.41844237,0.8538086,0.13302001,313,"2023-03-16T21:15:50.840Z"
72,0.37321776,0.8044189,-0.48245117,312,"2023-03-16T21:16:51.402Z"
60,0.30137694,0.7003467,-0.66044676,311,"2023-03-16T21:17:51.965Z"
61,-0.6608374,0.6810205,0.08945801,313,"2023-03-16T21:18:52.527Z"
51,-0.5787964,0.7533789,0.2522168,309,"2023-03-16T21:19:53.089Z"
67,-0.8995703,0.31665283,-0.37949952,313,"2023-03-16T21:20:53.651Z"
66,-0.7769214,0.5417187,0.14253174,314,"2023-03-16T21:21:54.214Z"
84,-0.6128833,0.727981,0.15446045,313,"2023-03-16T21:22:54.776Z"
78,0.6606543,0.24189208,0.6434546,312,"2023-03-16T21:23:55.338Z"
84,-0.6176392,0.6273706,0.38449952,312,"2023-03-16T21:24:55.900Z"
99,-0.53054446,0.7008081,0.40831298,310,"2023-03-16T21:25:56.462Z"
94,0.43708497,0.72846437,-0.54763675,310,"2023-03-16T21:26:57.025Z"
84,0.40880126,0.91587156,0.09489502,311,"2023-03-16T21:27:57.587Z"
53,0.39686766,0.8836182,-0.28054932,313,"2023-03-16T21:28:58.149Z"
63,0.76241213,0.34933838,0.5153027,315,"2023-03-16T21:29:58.711Z"
63,-0.8212427,0.5215918,0.122929685,316,"2023-03-16T21:30:59.274Z"
72,0.06160889,0.74963135,-0.61782473,318,"2023-03-16T21:31:59.836Z"
54,-0.84049314,0.42019287,-0.3020044,319,"2023-03-16T21:33:00.398Z"
80,0.5966211,0.7084082,-0.040942382,318,"2023-03-16T21:34:00.960Z"
56,-0.4851416,0.76397705,0.38420165,318,"2023-03-16T21:35:01.523Z"
59,-0.7951123,0.44663087,0.35546386,320,"2023-03-16T21:36:02.085Z"
66,0.1908667,0.93793947,0.26553467,319,"2023-03-16T21:37:02.647Z"
82,-0.62096435,0.54201907,-0.46477294,318,"2023-03-16T21:38:03.209Z"
49,-0.79017824,0.37050292,0.44201416,320,"2023-03-16T21:39:03.772Z"
75,-0.5401172,0.5741675,0.5825708,320,"2023-03-16T21:40:04.334Z"
73,-0.89343995,0.4095947,-0.03161621,319,"2023-03-16T21:41:04.896Z"
74,-0.6785107,0.5455151,-0.47446778,319,"2023-03-16T21:42:05.458Z"
77,0.16326416,0.88562745,0.3823828,317,"2023-03-16T21:43:06.021Z"
64,0.07096436,0.9815991,-0.18175294,317,"2023-03-16T21:44:06.583Z"
59,0.2969531,0.7065601,-0.6293506,318,"2023-03-16T21:45:07.145Z"
67,0.63273925,0.58655274,-0.5346582,319,"2023-03-16T21:46:07.708Z"
58,-0.29896727,0.82585937,0.25376952,321,"2023-03-16T21:47:08.270Z"
60,0.14200683,0.99031496,0.012756348,320,"2023-03-16T21:48:08.832Z"
59,0.2197339,0.97350097,0.06927978,323,"2023-03-16T21:49:09.394Z"
50,0.10088379,0.9797632,-0.16457519,323,"2023-03-16T21:50:09.957Z"
75,0.8651807,0.38954103,0.36824217,323,"2023-03-16T21:51:10.519Z"
57,-0.014802246,0.91701174,-0.4044629,324,"2023-03-16T21:52:11.081Z"
47,0.030437011,0.98504883,0.10343262,323,"2023-03-16T21:53:11.643Z"
47,0.1667163,0.8469116,-0.5177978,323,"2023-03-16T21:54:12.206Z"
54,0.54600096,0.66509277,-0.534541,323,"2023-03-16T21:55:12.768Z"
57,0.061799318,0.86100584,-0.070029296,324,"2023-03-16T21:56:13.330Z"
76,-0.24483886,0.82741946,0.47190917,323,"2023-03-16T21:57:13.892Z"
76,0.59016114,0.56861573,-0.5960718,323,"2023-03-16T21:58:14.455Z"
43,0.609375,0.5253369,-0.6185083,323,"2023-03-16T21:59:15.017Z"
41,0.60404295,0.52136964,-0.62729,323,"2023-03-16T22:00:15.579Z"
38,0.6045337,0.5469043,-0.60308594,324,"2023-03-16T22:01:16.141Z"
41,0.59531736,0.53419924,-0.62314695,326,"2023-03-16T22:02:16.704Z"
38,0.041594237,-0.91355956,-0.4403711,319,"2023-03-16T22:03:17.266Z"
39,0.040720213,-0.91173583,-0.44364503,317,"2023-03-16T22:04:17.828Z"
36,0.03894043,-0.9138696,-0.43911132,319,"2023-03-16T22:05:18.390Z"
37,0.037961427,-0.91366696,-0.4411377,321,"2023-03-16T22:06:18.952Z"
39,0.041726075,-0.91358644,-0.44130126,322,"2023-03-16T22:07:19.515Z"
36,0.040480956,-0.9123706,-0.4435254,324,"2023-03-16T22:08:20.077Z"
36,0.03861084,-0.9141431,-0.43937987,325,"2023-03-16T22:09:20.639Z"
35,0.03816162,-0.9127344,-0.44166505,326,"2023-03-16T22:10:21.201Z"
36,0.037443846,-0.9131323,-0.44190186,327,"2023-03-16T22:11:21.764Z"
36,0.03760498,-0.9125586,-0.44221923,328,"2023-03-16T22:12:22.326Z"
37,0.036953125,-0.9116113,-0.44431886,329,"2023-03-16T22:13:22.888Z"
38,0.043913573,-0.92234373,-0.42151612,329,"2023-03-16T22:14:23.450Z"
35,0.043410644,-0.9230298,-0.41946778,330,"2023-03-16T22:15:24.013Z"
36,0.043757323,-0.9231714,-0.41877198,331,"2023-03-16T22:16:24.575Z"
35,0.043618165,-0.92317384,-0.41853273,331,"2023-03-16T22:17:25.137Z"
35,0.045612793,-0.92307127,-0.4187134,333,"2023-03-16T22:18:25.699Z"
37,0.04513916,-0.92363524,-0.41789794,333,"2023-03-16T22:19:26.262Z"
37,0.045307618,-0.9237134,-0.4179248,334,"2023-03-16T22:20:26.824Z"
36,0.045322265,-0.9230078,-0.41844237,335,"2023-03-16T22:21:27.386Z"
36,0.045427248,-0.92326415,-0.41820312,336,"2023-03-16T22:22:27.948Z"
38,0.028476562,-0.9383496,-0.38386476,337,"2023-03-16T22:23:28.510Z"
36,0.028225098,-0.93822753,-0.38417724,337,"2023-03-16T22:24:29.073Z"
35,0.027832031,-0.9385791,-0.3841455,338,"2023-03-16T22:25:29.635Z"
41,0.42109132,-0.73067385,0.5298535,338,"2023-03-16T22:26:30.197Z"
35,0.7153711,0.033049315,0.72060794,341,"2023-03-16T22:27:30.760Z"
55,0.7040283,-0.050976563,0.7311426,340,"2023-03-16T22:28:31.322Z"
37,0.7046802,-0.07765869,0.72913086,340,"2023-03-16T22:29:31.884Z"
42,0.5291626,-0.56762695,0.65947264,340,"2023-03-16T22:30:32.446Z"
34,0.53086424,-0.5655713,0.659187,342,"2023-03-16T22:31:33.008Z"
38,0.55516845,-0.4795166,0.70458496,342,"2023-03-16T22:32:33.579Z"
36,0.602583,-0.58330077,0.57935303,343,"2023-03-16T22:33:34.145Z"
41,0.60256594,-0.5830444,0.5796875,343,"2023-03-16T22:34:34.708Z"
36,0.60893065,-0.57188475,0.58138674,343,"2023-03-16T22:35:35.270Z"
36,0.6049756,-0.57838625,0.58135986,344,"2023-03-16T22:36:35.832Z"
36,0.6047461,-0.5793726,0.581189,344,"2023-03-16T22:37:36.394Z"
37,0.6041919,-0.57843995,0.58282715,345,"2023-03-16T22:38:36.956Z"
36,0.6039063,-0.57939696,0.581604,345,"2023-03-16T22:39:37.519Z"
37,0.60406494,-0.62773925,0.5317627,345,"2023-03-16T22:40:38.081Z"
35,0.5829907,-0.63463867,0.5455908,346,"2023-03-16T22:41:38.643Z"
38,0.58293945,-0.6351733,0.54497313,347,"2023-03-16T22:42:39.205Z"
36,0.58249754,-0.6360327,0.5446802,347,"2023-03-16T22:43:39.768Z"
37,0.5824536,-0.6372534,0.5428198,348,"2023-03-16T22:44:40.330Z"
36,0.5825757,-0.6387012,0.542583,348,"2023-03-16T22:45:40.892Z"
38,0.5819849,-0.63811034,0.5422363,348,"2023-03-16T22:46:41.454Z"
38,0.5823462,-0.63787353,0.5419116,349,"2023-03-16T22:47:42.016Z"
39,0.5813843,-0.6390991,0.54154295,349,"2023-03-16T22:48:42.579Z"
41,0.5759375,-0.68680173,0.4880713,349,"2023-03-16T22:49:43.141Z"
62,0.022492675,-0.5568579,-0.8430029,348,"2023-03-16T22:50:43.703Z"
40,0.023740234,-0.5572363,-0.8424414,345,"2023-03-16T22:51:44.274Z"
41,0.023676759,-0.5571338,-0.84267825,344,"2023-03-16T22:52:44.839Z"
38,0.023510743,-0.55625486,-0.8433618,342,"2023-03-16T22:53:45.402Z"
39,0.023557128,-0.5556714,-0.84436035,341,"2023-03-16T22:54:45.964Z"
39,0.023713378,-0.55461425,-0.84497315,341,"2023-03-16T22:55:46.526Z"
50,0.035700683,-0.5332373,-0.8587744,341,"2023-03-16T22:56:47.088Z"
40,0.03505615,-0.5344336,-0.8575244,341,"2023-03-16T22:57:47.651Z"
36,0.03493408,-0.5341431,-0.85731936,341,"2023-03-16T22:58:48.213Z"
40,0.03336914,-0.5321265,-0.85901123,341,"2023-03-16T22:59:48.775Z"
38,0.032800294,-0.5321411,-0.8596753,341,"2023-03-16T23:00:49.337Z"
40,0.032578126,-0.5319287,-0.85899657,342,"2023-03-16T23:01:49.899Z"
48,0.11949463,-0.49367186,-0.87573975,344,"2023-03-16T23:02:50.462Z"
43,0.119819336,-0.49837157,-0.8729517,345,"2023-03-16T23:03:51.024Z"
43,0.08229004,-0.47984862,-0.8872217,345,"2023-03-16T23:04:51.586Z"
40,0.08128174,-0.48406005,-0.88506836,345,"2023-03-16T23:05:52.148Z"
39,0.08112793,-0.48315185,-0.88563234,345,"2023-03-16T23:06:52.711Z"
40,0.07773682,-0.47855714,-0.88835204,345,"2023-03-16T23:07:53.273Z"
48,0.080666505,-0.47382325,-0.89046633,346,"2023-03-16T23:08:53.835Z"
37,0.07859131,-0.48040527,-0.887334,346,"2023-03-16T23:09:54.397Z"
41,0.081896976,-0.49156982,-0.8804248,346,"2023-03-16T23:10:54.959Z"
37,0.082182616,-0.49088868,-0.88102293,346,"2023-03-16T23:11:55.533Z"
41,0.082182616,-0.48909178,-0.88205564,347,"2023-03-16T23:12:55.961Z"
43,0.10203125,-0.506687,-0.8708594,346,"2023-03-16T23:13:56.523Z"
40,0.11027588,-0.52197754,-0.86054444,347,"2023-03-16T23:14:57.086Z"
36,0.6605957,-0.150354,0.7571582,346,"2023-03-16T23:15:57.648Z"
36,0.6633081,-0.14777344,0.75581056,346,"2023-03-16T23:16:58.210Z"
37,0.66374266,-0.15155762,0.75405276,346,"2023-03-16T23:17:58.772Z"
38,0.6651416,-0.15162353,0.7538501,347,"2023-03-16T23:18:59.334Z"
35,0.6373022,0.04475586,0.78784424,348,"2023-03-16T23:19:59.897Z"
36,0.6373657,0.042160645,0.78711915,349,"2023-03-16T23:21:00.459Z"
34,0.63496095,0.014868164,0.79091066,349,"2023-03-16T23:22:01.021Z"
49,0.32002684,-0.29124755,0.8383887,350,"2023-03-16T23:23:01.430Z"
67,-0.40630126,-0.05230957,0.91982913,349,"2023-03-16T23:24:01.992Z"
68,-0.09755371,-0.07796387,0.9788745,350,"2023-03-16T23:25:02.554Z"
67,-0.39973146,-0.6427539,0.6370459,350,"2023-03-16T23:26:03.116Z"
35,-0.29428467,-0.40577638,0.8598999,351,"2023-03-16T23:27:03.678Z"
35,-0.29352784,-0.40738037,0.8599292,351,"2023-03-16T23:28:04.241Z"
38,-0.2915381,-0.39310303,0.8664331,351,"2023-03-16T23:29:04.803Z"
38,-0.2882959,-0.3917041,0.8676025,352,"2023-03-16T23:30:05.365Z"
35,-0.27969238,-0.35219237,0.8868628,352,"2023-03-16T23:31:05.927Z"
38,-0.27855957,-0.35254395,0.8871191,352,"2023-03-16T23:32:06.490Z"
39,-0.28064942,-0.35385743,0.88553464,353,"2023-03-16T23:33:06.879Z"
41,-0.2743335,-0.30185303,0.90575194,353,"2023-03-16T23:34:07.441Z"
46,-0.2114917,-0.3920337,0.89176023,353,"2023-03-16T23:35:08.003Z"
38,-0.22117676,-0.37790528,0.895437,353,"2023-03-16T23:36:08.565Z"
37,-0.19095947,-0.5022046,0.842207,353,"2023-03-16T23:37:09.128Z"
43,-0.6845703,0.08281006,0.6981909,353,"2023-03-16T23:38:09.690Z"
38,-0.69472414,0.123291016,0.68189454,355,"2023-03-16T23:39:10.252Z"
52,0.11509033,0.08845459,0.9893457,355,"2023-03-16T23:40:10.814Z"
42,0.12008545,0.3681421,0.9206592,355,"2023-03-16T23:41:11.377Z"
38,0.6416992,0.2558667,0.74074465,354,"2023-03-16T23:42:11.939Z"
38,0.6346631,0.24667236,0.74950683,355,"2023-03-16T23:43:12.386Z"
42,0.6477881,0.1677954,0.76115966,355,"2023-03-16T23:44:12.948Z"
36,0.6449219,0.17709228,0.7620825,355,"2023-03-16T23:45:13.510Z"
39,0.6463037,0.17005615,0.7620654,355,"2023-03-16T23:46:14.072Z"
36,0.6235693,0.124382325,0.7890161,355,"2023-03-16T23:47:14.635Z"
39,0.6311939,0.15153565,0.7781787,355,"2023-03-16T23:48:15.197Z"
36,0.6285327,0.13364014,0.78355956,355,"2023-03-16T23:49:15.759Z"
38,0.63192385,0.23710693,0.7553442,356,"2023-03-16T23:50:16.321Z"
43,0.64430666,0.107788086,0.77598876,356,"2023-03-16T23:51:16.884Z"
38,0.64090085,0.11135742,0.7776318,356,"2023-03-16T23:52:17.446Z"
53,0.6495581,0.096567385,0.773313,356,"2023-03-16T23:53:17.873Z"
37,0.6268286,0.17482178,0.77696776,354,"2023-03-16T23:54:18.436Z"
48,0.6498364,-0.30866945,0.7198901,350,"2023-03-16T23:55:18.998Z"
37,0.6518286,-0.30446044,0.7194067,350,"2023-03-16T23:56:19.560Z"
37,0.6801611,-0.39941162,0.6452173,348,"2023-03-16T23:57:20.122Z"
42,0.68922853,-0.43749267,0.6106958,346,"2023-03-16T23:58:20.684Z"
36,0.6889258,-0.49730223,0.5651172,344,"2023-03-16T23:59:21.247Z"
46,0.68355715,-0.3898877,0.6482446,343,"2023-03-17T00:00:00.660Z"
41,0.69504637,-0.49689454,0.5580542,341,"2023-03-17T00:01:01.222Z"
38,0.6878345,-0.5449878,0.5213354,340,"2023-03-17T00:02:01.785Z"
39,0.69137937,-0.50840575,0.55155027,337,"2023-03-17T00:03:02.212Z"
35,0.56275636,-0.25755614,0.8030835,338,"2023-03-17T00:04:02.775Z"
40,0.666416,-0.37062255,0.6739941,335,"2023-03-17T00:05:03.337Z"
54,-0.111418456,-1.0011157,-0.081271976,333,"2023-03-17T00:06:03.899Z"
41,-0.11121826,-1.0012134,-0.08232666,331,"2023-03-17T00:07:04.461Z"
40,-0.10819092,-0.99585205,-0.13191895,333,"2023-03-17T00:08:05.023Z"
37,-0.11078858,-0.9930957,-0.15203857,334,"2023-03-17T00:09:05.586Z"
36,-0.11622314,-0.9802417,-0.21786621,334,"2023-03-17T00:10:06.148Z"
41,-0.11533935,-0.9791577,-0.22167969,334,"2023-03-17T00:11:06.710Z"
44,-0.030625,-0.9923437,-0.20043701,334,"2023-03-17T00:12:07.272Z"
45,0.04451172,-0.8059839,-0.6141284,336,"2023-03-17T00:13:07.700Z"
42,0.06262695,-0.7151245,-0.7161255,340,"2023-03-17T00:14:08.262Z"
40,-0.0011523437,-0.48295897,-0.88945556,338,"2023-03-17T00:15:08.825Z"
38,0.0056591798,-0.41446045,-0.9227197,339,"2023-03-17T00:16:09.387Z"
39,-0.008728027,-0.40183106,-0.92822754,340,"2023-03-17T00:17:09.949Z"
41,0.002849121,-0.5179956,-0.86911863,340,"2023-03-17T00:18:10.511Z"
40,0.004833984,-0.5565308,-0.8428735,341,"2023-03-17T00:19:11.073Z"
42,0.0052246093,-0.55032957,-0.8485083,342,"2023-03-17T00:20:11.636Z"
40,0.017202148,-0.537959,-0.85688967,343,"2023-03-17T00:21:12.198Z"
46,0.014384765,-0.57713133,-0.83055663,344,"2023-03-17T00:22:12.760Z"
36,0.021208497,-0.5791089,-0.8292334,345,"2023-03-17T00:23:13.188Z"
43,0.009650879,-0.5569287,-0.8438965,345,"2023-03-17T00:24:13.750Z"
43,0.010532226,-0.56038576,-0.8414795,345,"2023-03-17T00:25:14.313Z"
38,0.020715332,-0.5455884,-0.85128665,344,"2023-03-17T00:26:14.875Z"
40,0.022312012,-0.54737306,-0.8493335,344,"2023-03-17T00:27:15.437Z"
38,0.03611328,-0.5724365,-0.8335669,345,"2023-03-17T00:28:15.999Z"
40,0.03977783,-0.5744409,-0.83173096,345,"2023-03-17T00:29:16.561Z"
40,-0.047292482,-1.0017822,-0.13445556,341,"2023-03-17T00:30:17.124Z"
48,-0.002607422,-0.9913159,-0.20815673,341,"2023-03-17T00:31:17.686Z"
35,-0.0060522463,-0.9904492,-0.21496826,340,"2023-03-17T00:32:18.248Z"
43,-0.0027319335,-0.65096194,-0.77638674,341,"2023-03-17T00:33:18.676Z"
40,-0.00546875,-0.63976806,-0.7832666,341,"2023-03-17T00:34:19.238Z"
42,-0.0054174806,-0.64154786,-0.78203857,341,"2023-03-17T00:35:19.800Z"
42,-0.0060839844,-0.64342284,-0.77993655,341,"2023-03-17T00:36:20.362Z"
42,-0.008071289,-0.6450171,-0.7788525,341,"2023-03-17T00:37:20.925Z"
38,-0.007705078,-0.64034426,-0.7822656,341,"2023-03-17T00:38:21.487Z"
43,-0.0071606445,-0.6395972,-0.782207,341,"2023-03-17T00:39:22.049Z"
39,-0.0029418946,-0.5675976,-0.8360034,342,"2023-03-17T00:40:22.611Z"
37,-0.003544922,-0.56590575,-0.8369824,343,"2023-03-17T00:41:23.174Z"
40,-0.0019189453,-0.57067627,-0.8340039,343,"2023-03-17T00:42:23.736Z"
39,-0.0005541992,-0.5719702,-0.83280516,343,"2023-03-17T00:43:24.163Z"
39,-0.001459961,-0.57488525,-0.8311621,343,"2023-03-17T00:44:24.726Z"
39,-0.0016918945,-0.5742212,-0.8313452,343,"2023-03-17T00:45:25.288Z"
38,-0.001772461,-0.56924075,-0.8347705,343,"2023-03-17T00:46:25.850Z"
39,-0.0021777344,-0.56898683,-0.834458,343,"2023-03-17T00:47:26.412Z"
40,-0.0020996095,-0.56861573,-0.83477294,343,"2023-03-17T00:48:26.975Z"
64,0.5311328,-0.070617676,0.8593848,344,"2023-03-17T00:49:27.537Z"
47,0.5304761,-0.07300293,0.8591211,347,"2023-03-17T00:50:28.099Z"
56,0.5800928,0.12739502,0.8193408,348,"2023-03-17T00:51:28.674Z"
42,0.578833,0.12844238,0.81936526,349,"2023-03-17T00:52:29.236Z"
40,0.57076174,-0.255271,0.79993653,349,"2023-03-17T00:53:29.798Z"
41,0.5717529,-0.2558252,0.7987915,350,"2023-03-17T00:54:30.360Z"
39,0.5721338,-0.25708252,0.79803956,351,"2023-03-17T00:55:30.923Z"
42,0.57249755,-0.25737548,0.7978247,352,"2023-03-17T00:56:31.485Z"
39,0.5736792,-0.25696534,0.797417,352,"2023-03-17T00:57:32.047Z"
44,0.5733618,-0.25813234,0.7975635,352,"2023-03-17T00:58:32.609Z"
42,0.5723706,-0.25925538,0.79766357,353,"2023-03-17T00:59:33.171Z"
42,0.57401365,-0.25967774,0.79630613,353,"2023-03-17T01:00:33.734Z"
41,0.5729907,-0.25932372,0.7972778,353,"2023-03-17T01:01:34.296Z"
39,0.5755298,-0.25870118,0.79632324,354,"2023-03-17T01:02:34.858Z"
57,-0.7994409,0.5631885,-0.104433596,352,"2023-03-17T01:03:35.420Z"
74,-0.6192139,0.6668262,-0.39019287,348,"2023-03-17T01:04:35.983Z"
42,-0.6199414,0.6659717,-0.38979492,346,"2023-03-17T01:05:36.545Z"
39,-0.6165674,0.6704834,-0.38717285,344,"2023-03-17T01:06:37.107Z"
35,-0.6182666,0.6670093,-0.39180908,344,"2023-03-17T01:07:37.669Z"
40,-0.6146704,0.6704492,-0.39135498,345,"2023-03-17T01:08:38.231Z"
38,-0.389917,-0.8027124,0.4490332,342,"2023-03-17T01:09:38.794Z"
37,-0.38554442,-0.8054004,0.45001954,340,"2023-03-17T01:10:39.356Z"
38,-0.3851489,-0.7966699,0.4646289,339,"2023-03-17T01:11:39.918Z"
40,-0.38513184,-0.79857177,0.4610083,338,"2023-03-17T01:12:40.480Z"
42,-0.27432373,-0.49573487,0.81866455,338,"2023-03-17T01:13:41.043Z"
37,-0.28286132,-0.50946045,0.80668944,335,"2023-03-17T01:14:41.605Z"
41,-0.2910205,-0.500437,0.80952394,334,"2023-03-17T01:15:42.167Z"
38,-0.29200196,-0.50496584,0.8066772,335,"2023-03-17T01:16:42.729Z"
39,-0.29422852,-0.5082104,0.80363035,334,"2023-03-17T01:17:43.292Z"
40,-0.2944873,-0.51448,0.7991284,334,"2023-03-17T01:18:43.854Z"
41,-0.2925708,-0.51250976,0.80158937,333,"2023-03-17T01:19:44.416Z"
37,-0.27114746,-0.5064209,0.81315917,336,"2023-03-17T01:20:44.978Z"
41,-0.2758008,-0.4219336,0.85718995,335,"2023-03-17T01:21:45.541Z"
38,-0.31351075,-0.6231885,0.71153563,336,"2023-03-17T01:22:46.103Z"
39,-0.31641358,-0.6211377,0.7118359,336,"2023-03-17T01:23:46.665Z"
42,-0.33779785,-0.68953615,0.6365698,331,"2023-03-17T01:24:47.227Z"
40,-0.3359912,-0.6781323,0.64858156,329,"2023-03-17T01:25:47.790Z"
37,-0.7081689,0.6781787,-0.09363525,335,"2023-03-17T01:26:48.352Z"
36,-0.68592775,0.40519774,0.5684302,335,"2023-03-17T01:27:48.914Z"
56,0.07316895,-0.9761548,-0.26628172,331,"2023-03-17T01:28:49.476Z"
44,0.07128662,-0.9746851,-0.27321288,327,"2023-03-17T01:29:50.039Z"
38,0.070649415,-0.97476804,-0.27283204,327,"2023-03-17T01:30:50.601Z"
38,0.07070068,-0.97418946,-0.27368897,328,"2023-03-17T01:31:51.163Z"
38,0.07054932,-0.97438234,-0.27420655,330,"2023-03-17T01:32:51.725Z"
38,0.07098633,-0.9746167,-0.27523437,331,"2023-03-17T01:33:52.288Z"
40,0.070637204,-0.9741577,-0.2759082,332,"2023-03-17T01:34:52.850Z"
39,0.0611084,-0.96718264,-0.30049074,333,"2023-03-17T01:35:53.412Z"
38,0.061796874,-0.96700686,-0.30046874,334,"2023-03-17T01:36:53.974Z"
40,0.062075194,-0.9667212,-0.3012866,335,"2023-03-17T01:37:54.536Z"
38,0.06211914,-0.9663696,-0.30141112,336,"2023-03-17T01:38:55.111Z"
39,0.06253174,-0.9664331,-0.30054688,337,"2023-03-17T01:39:55.673Z"
40,0.062358398,-0.9668506,-0.30145508,337,"2023-03-17T01:40:56.236Z"
38,0.063674316,-0.96671385,-0.30225343,338,"2023-03-17T01:41:56.798Z"
39,0.063190915,-0.9663574,-0.30283204,338,"2023-03-17T01:42:57.360Z"
38,0.06310547,-0.9660205,-0.30333984,339,"2023-03-17T01:43:57.922Z"
39,0.063466795,-0.96638674,-0.30353516,339,"2023-03-17T01:44:58.485Z"
39,0.06314209,-0.9660498,-0.30342042,340,"2023-03-17T01:45:59.047Z"
40,0.06222412,-0.96656495,-0.3004297,340,"2023-03-17T01:46:59.609Z"
35,0.06685059,-0.9647827,-0.3068677,340,"2023-03-17T01:48:00.171Z"
38,0.064399414,-0.96563965,-0.30385008,340,"2023-03-17T01:49:00.733Z"
42,0.06459961,-0.9656641,-0.30417237,340,"2023-03-17T01:50:01.296Z"
34,0.06478515,-0.9659741,-0.30453613,340,"2023-03-17T01:51:01.858Z"
38,0.0647876,-0.9659717,-0.304397,341,"2023-03-17T01:52:02.420Z"
38,0.06455322,-0.9662769,-0.30223876,341,"2023-03-17T01:53:02.982Z"
40,0.07535889,-0.337771,-0.95112795,346,"2023-03-17T01:54:03.545Z"
37,0.07429443,-0.3487622,-0.94663817,346,"2023-03-17T01:55:04.107Z"
42,0.074353024,-0.35172608,-0.945398,346,"2023-03-17T01:56:04.669Z"
40,0.07447266,-0.3535547,-0.9441357,346,"2023-03-17T01:57:05.231Z"
38,0.13116455,-0.13273193,-0.99405515,346,"2023-03-17T01:58:05.806Z"
37,0.11484375,-0.3752881,-0.9331567,347,"2023-03-17T01:59:06.368Z"
40,0.11527588,-0.3755127,-0.9324561,347,"2023-03-17T02:00:06.930Z"
40,0.11539551,-0.37687743,-0.9318579,347,"2023-03-17T02:01:07.493Z"
36,0.115908206,-0.37773192,-0.9314673,348,"2023-03-17T02:02:08.055Z"
36,0.11519287,-0.39172852,-0.92561036,347,"2023-03-17T02:03:08.617Z"
41,0.11592041,-0.3925171,-0.92549807,348,"2023-03-17T02:04:09.179Z"
42,0.11874756,-0.5029468,-0.870769,348,"2023-03-17T02:05:09.741Z"
44,0.48837158,0.34955323,0.80939454,347,"2023-03-17T02:06:10.304Z"
43,0.49195802,0.3604126,0.8028174,347,"2023-03-17T02:07:10.866Z"
38,0.48821044,0.35788086,0.8056177,347,"2023-03-17T02:08:11.428Z"
38,0.4880371,0.35903075,0.8060034,347,"2023-03-17T02:09:11.990Z"
40,0.4886548,0.3617407,0.8037378,347,"2023-03-17T02:10:12.553Z"
43,0.48823974,0.35833496,0.806333,348,"2023-03-17T02:11:13.115Z"
37,0.48778075,0.35727295,0.8065869,348,"2023-03-17T02:12:13.677Z"
43,0.4877832,0.37031496,0.8009546,349,"2023-03-17T02:13:14.239Z"
42,0.48860595,0.3766162,0.7975366,350,"2023-03-17T02:14:14.802Z"
45,0.4873413,0.37618163,0.798606,350,"2023-03-17T02:15:15.364Z"
47,0.48604736,0.37382326,0.80076903,350,"2023-03-17T02:16:15.926Z"
40,0.4860205,0.37551025,0.7994995,351,"2023-03-17T02:17:16.501Z"
45,0.48645753,0.3756836,0.7997632,351,"2023-03-17T02:18:17.063Z"
46,0.5270752,0.3025073,0.80620116,351,"2023-03-17T02:19:17.625Z"
49,0.52699953,0.30166993,0.8068457,352,"2023-03-17T02:20:18.188Z"
45,0.52546877,0.29990968,0.80867434,352,"2023-03-17T02:21:18.750Z"
43,0.52563477,0.3007373,0.80863035,352,"2023-03-17T02:22:19.312Z"
43,0.5265552,0.2994336,0.80805665,353,"2023-03-17T02:23:19.858Z"
45,0.5257959,0.2982495,0.80883545,353,"2023-03-17T02:24:20.421Z"
42,0.5260376,0.29906738,0.8081763,353,"2023-03-17T02:25:20.984Z"
43,0.6119873,0.009968262,0.8050049,353,"2023-03-17T02:26:21.546Z"
37,-0.72763914,0.124431156,0.644856,353,"2023-03-17T02:27:22.108Z"
42,-0.7269287,0.12467041,0.64576906,354,"2023-03-17T02:28:22.670Z"
39,-0.72274417,0.10741211,0.6537915,354,"2023-03-17T02:29:23.232Z"
40,-0.71980715,0.09220215,0.65927005,354,"2023-03-17T02:30:23.795Z"
41,-0.71723145,0.096577145,0.66194826,354,"2023-03-17T02:31:24.357Z"
42,-0.7174976,0.09722656,0.6619751,354,"2023-03-17T02:32:24.919Z"
40,-0.71999514,0.091022946,0.65944093,355,"2023-03-17T02:33:25.481Z"
41,-0.71690917,0.09721191,0.66293216,355,"2023-03-17T02:34:26.044Z"
42,-0.71677,0.09544189,0.6627563,355,"2023-03-17T02:35:26.606Z"
43,-0.72089845,0.09001953,0.6586206,355,"2023-03-17T02:36:27.181Z"
42,-0.7170386,0.09767334,0.66316897,355,"2023-03-17T02:37:27.743Z"
42,-0.71601564,0.09786621,0.6632788,355,"2023-03-17T02:38:28.305Z"
39,-0.7183887,0.09282959,0.66136473,355,"2023-03-17T02:39:28.867Z"
42,-0.7180566,0.09187988,0.66146,355,"2023-03-17T02:40:29.429Z"
40,-0.7151904,0.09770508,0.66417724,355,"2023-03-17T02:41:29.992Z"
39,-0.71728516,0.09437012,0.66215575,355,"2023-03-17T02:42:30.554Z"
40,-0.7155005,0.09855713,0.6636108,355,"2023-03-17T02:43:31.115Z"
44,-0.71553713,0.09739502,0.66342527,355,"2023-03-17T02:44:31.678Z"
44,-0.71593994,0.09347412,0.6637988,355,"2023-03-17T02:45:32.241Z"
44,-0.71406984,0.09771973,0.6652563,355,"2023-03-17T02:46:32.803Z"
43,-0.7145727,0.09535156,0.66526365,355,"2023-03-17T02:47:33.365Z"
39,0.53232175,0.2175537,0.8314429,355,"2023-03-17T02:48:33.927Z"
37,0.53186035,0.21780518,0.8320459,354,"2023-03-17T02:49:34.490Z"
39,0.5324292,0.21759033,0.83172363,354,"2023-03-17T02:50:35.052Z"
41,0.5335034,0.2195752,0.82963866,354,"2023-03-17T02:51:35.614Z"
64,-0.06853516,-0.97695315,-0.25339356,353,"2023-03-17T02:52:36.176Z"
42,-0.059121095,-0.97733885,-0.2536084,349,"2023-03-17T02:53:36.739Z"
41,-0.05916504,-0.97712404,-0.25397217,346,"2023-03-17T02:54:37.301Z"
42,-0.05581299,-0.9775146,-0.2544092,344,"2023-03-17T02:55:37.875Z"
41,-0.05475586,-0.97840333,-0.25482178,341,"2023-03-17T02:56:38.438Z"
41,-0.054375,-0.97710204,-0.2552832,339,"2023-03-17T02:57:39.000Z"
40,-0.054873046,-0.9780908,-0.25559816,337,"2023-03-17T02:58:39.562Z"
44,-0.05097168,-0.9780688,-0.256438,336,"2023-03-17T02:59:40.124Z"
56,0.6165039,-0.26220214,0.7632495,343,"2023-03-17T03:00:40.686Z"
42,0.6145361,-0.26124513,0.76504636,345,"2023-03-17T03:01:41.249Z"
43,0.61579835,-0.26099855,0.76473635,346,"2023-03-17T03:02:41.811Z"
38,0.61574465,-0.25986084,0.76480466,348,"2023-03-17T03:03:42.373Z"
42,0.6155859,-0.25920165,0.7655957,348,"2023-03-17T03:04:42.935Z"
42,0.6137183,-0.2563745,0.76836425,349,"2023-03-17T03:05:43.498Z"
44,0.6132519,-0.2543091,0.7696948,350,"2023-03-17T03:06:44.060Z"
46,0.6112622,-0.2545215,0.77067626,351,"2023-03-17T03:07:44.622Z"
40,0.61185056,-0.25395262,0.7705835,351,"2023-03-17T03:08:45.184Z"
43,0.6139038,-0.25293946,0.76937014,352,"2023-03-17T03:09:45.746Z"
42,0.61130124,-0.25248048,0.77170163,353,"2023-03-17T03:10:46.309Z"
40,0.61220706,-0.2527295,0.77175295,353,"2023-03-17T03:11:46.871Z"
43,0.61226565,-0.25280273,0.7711426,353,"2023-03-17T03:12:47.433Z"
44,0.61301756,-0.25149414,0.7706616,354,"2023-03-17T03:13:47.995Z"
41,0.61107177,-0.2505835,0.7718799,355,"2023-03-17T03:14:48.570Z"
39,0.6105542,-0.2504419,0.7730225,355,"2023-03-17T03:15:49.132Z"
40,0.6120947,-0.2505591,0.771521,355,"2023-03-17T03:16:49.695Z"
41,0.6118579,-0.25002196,0.772356,355,"2023-03-17T03:17:50.257Z"
41,0.6119775,-0.24999267,0.77258056,355,"2023-03-17T03:18:50.819Z"
42,0.61135983,-0.24868163,0.7735181,355,"2023-03-17T03:19:51.381Z"
39,0.6135474,-0.24868897,0.77128416,356,"2023-03-17T03:20:51.943Z"
37,0.61208254,-0.24815185,0.7735937,356,"2023-03-17T03:21:52.506Z"
41,0.6113501,-0.24747315,0.77330077,356,"2023-03-17T03:22:53.068Z"
42,0.6077368,-0.25159913,0.77530026,356,"2023-03-17T03:23:53.630Z"
39,0.6082715,-0.2498706,0.77560544,356,"2023-03-17T03:24:54.192Z"
38,0.60863036,-0.25056154,0.7749268,356,"2023-03-17T03:25:54.754Z"
42,0.60983396,-0.24610351,0.77546144,356,"2023-03-17T03:26:55.317Z"
41,0.6083838,-0.24590576,0.776438,356,"2023-03-17T03:27:55.879Z"
39,0.60770506,-0.24563965,0.77717286,356,"2023-03-17T03:28:56.441Z"
39,0.6080347,-0.24535888,0.77669436,356,"2023-03-17T03:29:57.003Z"
42,0.6097241,-0.24458252,0.7757837,356,"2023-03-17T03:30:57.566Z"
39,0.6065723,-0.24123779,0.77953124,356,"2023-03-17T03:31:58.128Z"
39,0.60536134,-0.24101074,0.7799805,357,"2023-03-17T03:32:58.690Z"
38,0.60633546,-0.24087891,0.77966064,357,"2023-03-17T03:33:59.265Z"
39,0.6058643,-0.24082763,0.7799121,357,"2023-03-17T03:34:59.827Z"
37,0.60743654,-0.24040039,0.7788574,357,"2023-03-17T03:36:00.389Z"
40,0.60688233,-0.24010742,0.7789819,357,"2023-03-17T03:37:00.951Z"
37,0.6055591,-0.24089843,0.78025144,357,"2023-03-17T03:38:01.514Z"
39,0.6108667,-0.202937,0.7862549,357,"2023-03-17T03:39:02.076Z"
41,0.61039305,-0.2035669,0.7866284,357,"2023-03-17T03:40:02.638Z"
37,0.6101587,-0.20335694,0.7869824,357,"2023-03-17T03:41:03.200Z"
41,0.6085791,-0.20402588,0.7873242,356,"2023-03-17T03:42:03.763Z"
37,0.61057127,-0.20385987,0.78614014,357,"2023-03-17T03:43:04.325Z"
41,0.60831785,-0.20411132,0.7877832,357,"2023-03-17T03:44:04.887Z"
41,0.60751706,-0.20406738,0.7884863,357,"2023-03-17T03:45:05.449Z"
40,0.60802245,-0.20497803,0.78817385,356,"2023-03-17T03:46:06.011Z"
37,0.07156982,-0.51781005,-0.86562747,355,"2023-03-17T03:47:06.574Z"
37,0.07162842,-0.52038574,-0.863623,352,"2023-03-17T03:48:07.136Z"
39,0.07091065,-0.5212598,-0.8640576,349,"2023-03-17T03:49:07.698Z"
39,0.07071045,-0.5229761,-0.86358154,348,"2023-03-17T03:50:08.260Z"
65,0.5745068,-0.120212406,0.82631105,345,"2023-03-17T03:51:08.823Z"
38,0.5715039,-0.12731934,0.8271509,344,"2023-03-17T03:52:09.385Z"
40,0.56928957,-0.13290283,0.8273462,345,"2023-03-17T03:53:09.960Z"
34,0.5697876,-0.13428468,0.8272534,345,"2023-03-17T03:54:10.522Z"
39,0.5688379,-0.13445312,0.8279248,345,"2023-03-17T03:55:11.084Z"
37,0.5686182,-0.13551514,0.8281836,346,"2023-03-17T03:56:11.646Z"
42,0.56814694,-0.1303662,0.8291748,346,"2023-03-17T03:57:12.208Z"
39,0.56928957,-0.13387208,0.82783204,347,"2023-03-17T03:58:12.771Z"
39,0.5692749,-0.13503662,0.8274048,347,"2023-03-17T03:59:13.333Z"
40,0.5690039,-0.1344214,0.82811034,347,"2023-03-17T04:00:13.895Z"
50,0.41536865,-0.2522046,0.8876196,347,"2023-03-17T04:01:14.458Z"
40,0.4104492,-0.28939697,0.878667,348,"2023-03-17T04:02:15.020Z"
47,0.41118407,-0.2901001,0.877688,348,"2023-03-17T04:03:15.582Z"
41,0.408374,-0.29417238,0.878291,349,"2023-03-17T04:04:16.144Z"
44,0.40860352,-0.31371093,0.870957,349,"2023-03-17T04:05:16.707Z"
38,0.4086426,-0.31593263,0.87031007,349,"2023-03-17T04:06:17.269Z"
43,0.40865234,-0.31544676,0.8707251,349,"2023-03-17T04:07:17.831Z"
45,0.40909913,-0.3141992,0.8714136,349,"2023-03-17T04:08:18.393Z"
46,0.4087451,-0.31537354,0.87083006,350,"2023-03-17T04:09:18.955Z"
49,-0.3372119,-0.81758547,0.3688208,350,"2023-03-17T04:10:19.518Z"
38,-0.66003907,0.043342285,0.72559327,350,"2023-03-17T04:11:20.080Z"
34,-0.6530029,0.067141116,0.7297046,350,"2023-03-17T04:12:20.650Z"
36,-0.65326905,0.34700438,0.64420164,350,"2023-03-17T04:13:21.217Z"
36,-0.6528833,0.34758544,0.6442285,350,"2023-03-17T04:14:21.779Z"
40,-0.6545239,0.34531495,0.6432373,350,"2023-03-17T04:15:22.341Z"
41,-0.6516675,0.2779834,0.67844236,351,"2023-03-17T04:16:22.903Z"
43,-0.6515991,0.27624023,0.67950684,351,"2023-03-17T04:17:23.466Z"
40,-0.651604,0.27739012,0.67918456,351,"2023-03-17T04:18:24.028Z"
38,-0.65260255,0.27636963,0.67899656,351,"2023-03-17T04:19:24.590Z"
50,-0.7470703,0.10263428,0.6271167,351,"2023-03-17T04:20:25.152Z"
38,-0.74168456,0.10961914,0.63107663,352,"2023-03-17T04:21:25.715Z"
41,-0.74114746,0.11075439,0.6330908,352,"2023-03-17T04:22:26.277Z"
40,-0.736499,0.120349124,0.6358496,352,"2023-03-17T04:23:26.839Z"
46,-0.7385742,0.11972656,0.632583,353,"2023-03-17T04:24:27.401Z"
41,-0.7397632,0.11938232,0.6322461,353,"2023-03-17T04:25:27.963Z"
38,-0.7354395,0.12409424,0.63576907,353,"2023-03-17T04:26:28.526Z"
46,-0.7363159,0.12432861,0.63521975,353,"2023-03-17T04:27:29.088Z"
40,-0.7404785,0.120471194,0.6295874,353,"2023-03-17T04:28:29.650Z"
43,-0.7376221,0.123391114,0.6334302,353,"2023-03-17T04:29:30.212Z"
45,-0.7388867,0.12337402,0.6331299,353,"2023-03-17T04:30:30.774Z"
47,-0.7362671,0.12622559,0.63434327,353,"2023-03-17T04:31:31.345Z"
39,-0.73476565,0.12946533,0.6355371,353,"2023-03-17T04:32:31.912Z"
42,-0.7664526,0.21441895,0.5719263,352,"2023-03-17T04:33:32.474Z"
42,-0.75461423,0.20177734,0.5906079,352,"2023-03-17T04:34:33.036Z"
41,-0.6148413,-0.37691405,0.6758057,351,"2023-03-17T04:35:33.598Z"
42,-0.6158154,-0.3887329,0.6682129,348,"2023-03-17T04:36:34.160Z"
44,-0.61162597,-0.36625,0.68393797,344,"2023-03-17T04:37:34.723Z"
41,-0.6149121,-0.3660254,0.6799194,340,"2023-03-17T04:38:35.285Z"
38,-0.6154004,-0.36383545,0.6795044,336,"2023-03-17T04:39:35.847Z"
41,-0.6134766,-0.36408448,0.6813599,333,"2023-03-17T04:40:36.409Z"
45,-0.61743164,-0.3557617,0.6822095,331,"2023-03-17T04:41:36.972Z"
40,-0.6199121,-0.3467627,0.68270755,329,"2023-03-17T04:42:37.534Z"
42,-0.6192676,-0.34639403,0.6847046,328,"2023-03-17T04:43:38.096Z"
46,-0.61863035,-0.34490478,0.6855664,327,"2023-03-17T04:44:38.658Z"
41,-0.61813474,-0.3439917,0.68673825,325,"2023-03-17T04:45:39.221Z"
45,-0.61822754,-0.34391114,0.6858227,324,"2023-03-17T04:46:39.783Z"
44,-0.618623,-0.34125245,0.6872046,323,"2023-03-17T04:47:40.345Z"
43,0.2833203,-0.47197264,-0.85361326,329,"2023-03-17T04:48:40.907Z"
41,0.28837404,-0.4803125,-0.84754884,328,"2023-03-17T04:49:41.469Z"
41,0.29027098,-0.48184326,-0.8458911,328,"2023-03-17T04:50:42.040Z"
41,0.29269776,-0.4898047,-0.84049803,329,"2023-03-17T04:51:42.607Z"
44,0.29448974,-0.49177977,-0.8388355,329,"2023-03-17T04:52:43.169Z"
43,0.29462647,-0.4926465,-0.8378589,330,"2023-03-17T04:53:43.731Z"
42,0.2953369,-0.4940698,-0.8370044,330,"2023-03-17T04:54:44.293Z"
40,0.29658934,-0.49366942,-0.83576417,331,"2023-03-17T04:55:44.855Z"
38,0.29633301,-0.49408448,-0.83540285,331,"2023-03-17T04:56:45.418Z"
40,0.29815674,-0.49813232,-0.8332373,332,"2023-03-17T04:57:45.980Z"
49,0.4987744,0.20892823,0.8520947,331,"2023-03-17T04:58:46.542Z"
39,0.49662355,0.22022949,0.8506787,334,"2023-03-17T04:59:47.104Z"
40,0.49623048,0.2184961,0.85105956,337,"2023-03-17T05:00:47.667Z"
40,0.4959668,0.21971191,0.8519824,339,"2023-03-17T05:01:48.229Z"
37,0.4955371,0.22065918,0.85091555,340,"2023-03-17T05:02:48.791Z"
39,0.4948999,0.22416504,0.8500415,341,"2023-03-17T05:03:49.354Z"
40,0.49482423,0.22361572,0.8502393,343,"2023-03-17T05:04:49.916Z"
40,-0.015598144,-0.9200952,-0.4240552,339,"2023-03-17T05:05:50.478Z"
39,-0.01689209,-0.91806394,-0.42892823,337,"2023-03-17T05:06:51.040Z"
41,-0.018620605,-0.91641843,-0.43304443,337,"2023-03-17T05:07:51.603Z"
41,-0.019665528,-0.9162085,-0.43299073,337,"2023-03-17T05:08:52.165Z"
40,-0.02001465,-0.9137793,-0.4390967,337,"2023-03-17T05:09:52.735Z"
48,-0.5261475,0.8544995,-0.08105469,338,"2023-03-17T05:10:53.302Z"
75,-0.13147461,0.773855,-0.56381834,340,"2023-03-17T05:11:53.864Z"
73,-0.18577637,0.7716455,0.5653711,335,"2023-03-17T05:12:54.426Z"
62,-0.6848267,0.21210693,0.6150854,333,"2023-03-17T05:13:54.989Z"
78,0.9561206,0.26170167,-0.0982666,332,"2023-03-17T05:14:55.551Z"
59,0.012924804,0.99773926,0.03123291,325,"2023-03-17T05:15:56.113Z"
75,0.65110105,0.66122556,-0.21980958,323,"2023-03-17T05:16:56.675Z"
81,0.60922605,-0.78228027,-0.099572755,326,"2023-03-17T05:17:57.237Z"
49,0.042219236,-1.0039502,-0.13780029,320,"2023-03-17T05:18:57.800Z"
49,0.040500488,-1.0030884,-0.14257568,320,"2023-03-17T05:19:58.362Z"
47,0.04032959,-1.0030664,-0.1437915,320,"2023-03-17T05:20:58.924Z"
41,0.040773924,-1.0024585,-0.1445044,321,"2023-03-17T05:21:59.486Z"
43,0.04116699,-1.0030762,-0.14484619,324,"2023-03-17T05:23:00.049Z"
40,0.04077881,-1.0031445,-0.14407471,327,"2023-03-17T05:24:00.611Z"
41,0.039541017,-1.0029224,-0.14513671,330,"2023-03-17T05:25:01.173Z"
51,0.039313965,-1.0026709,-0.1460205,333,"2023-03-17T05:26:01.735Z"
39,0.021269532,-0.9983179,-0.17614502,334,"2023-03-17T05:27:02.298Z"
44,0.020952148,-0.99797606,-0.1780249,336,"2023-03-17T05:28:02.860Z"
51,0.02039795,-0.99760985,-0.17889649,337,"2023-03-17T05:29:03.422Z"
48,0.020197755,-0.9971753,-0.18062012,338,"2023-03-17T05:30:03.984Z"
49,0.020058595,-0.99667966,-0.18093261,339,"2023-03-17T05:31:04.547Z"
48,0.21278809,-0.97098386,-0.18071045,340,"2023-03-17T05:32:05.109Z"
48,0.1607959,-0.9712793,-0.25192872,340,"2023-03-17T05:33:05.671Z"
45,0.15774903,-0.971709,-0.2520996,340,"2023-03-17T05:34:06.233Z"
41,0.1571167,-0.971687,-0.252605,341,"2023-03-17T05:35:06.796Z"
46,0.1568335,-0.97215086,-0.25156984,341,"2023-03-17T05:36:07.358Z"
60,0.45311278,0.61036134,-0.6665796,342,"2023-03-17T05:37:07.920Z"
62,-0.7709546,0.60643065,-0.11972168,339,"2023-03-17T05:38:08.482Z"
74,-0.10068359,0.73986083,-0.6567212,336,"2023-03-17T05:39:09.045Z"
73,-0.22536378,0.7723999,-0.5919263,334,"2023-03-17T05:40:09.607Z"
73,0.083623044,0.61105466,0.779917,332,"2023-03-17T05:41:10.169Z"
57,0.37204102,0.8617139,-0.36566895,331,"2023-03-17T05:42:10.731Z"
60,0.055361327,0.84023196,0.5274072,327,"2023-03-17T05:43:11.293Z"
59,0.48070556,0.7647852,0.44116455,324,"2023-03-17T05:44:11.856Z"
78,-0.0067456053,0.18312988,0.97188234,324,"2023-03-17T05:45:12.418Z"
73,0.13196534,0.77843994,0.60608155,324,"2023-03-17T05:46:12.980Z"
59,0.0053271484,0.865188,-0.50668454,325,"2023-03-17T05:47:13.542Z"
57,0.6134204,0.5940576,0.4931958,324,"2023-03-17T05:48:14.105Z"
65,0.15955323,0.9472412,0.29555663,322,"2023-03-17T05:49:14.667Z"
62,-0.19300781,0.71179444,0.5802759,323,"2023-03-17T05:50:15.229Z"
64,0.006271973,0.2773291,0.93024904,322,"2023-03-17T05:51:15.792Z"
64,0.25314698,0.56605226,0.4722583,321,"2023-03-17T05:52:16.354Z"
63,0.2026709,0.6365283,0.74351317,320,"2023-03-17T05:53:16.916Z"
65,0.7015161,0.26038575,0.66795164,320,"2023-03-17T05:54:17.478Z"
65,-0.09036865,0.2473413,0.94820803,320,"2023-03-17T05:55:18.041Z"
68,0.73417723,0.027895508,0.68729,319,"2023-03-17T05:56:18.603Z"
78,-0.025388183,1.0032617,-0.01303711,319,"2023-03-17T05:57:19.165Z"
63,0.6213257,0.69926023,0.39233887,319,"2023-03-17T05:58:19.727Z"
78,-0.2202002,0.71367675,-0.66215575,319,"2023-03-17T05:59:20.290Z"
70,-0.23472656,0.940354,-0.23431641,317,"2023-03-17T06:00:20.852Z"
77,0.57717776,0.6920532,0.304895,316,"2023-03-17T06:01:21.414Z"
58,-0.15449952,0.6903345,0.6917163,314,"2023-03-17T06:02:21.961Z"
