"hr","accel_x","accel_y","accel_z","skin_temp","ts"
46,-0.59358644,0.55245364,0.55109864,349,"2023-02-24T00:00:00.043Z"
48,-0.5908252,0.5534546,0.55291015,349,"2023-02-24T00:01:00.605Z"
50,-0.5952612,0.55047363,0.54964113,350,"2023-02-24T00:02:01.168Z"
49,-0.5898511,0.55345947,0.55420166,350,"2023-02-24T00:03:01.730Z"
45,-0.5895776,0.55395997,0.55422854,350,"2023-02-24T00:04:02.292Z"
52,-0.5967603,0.5492749,0.5498169,350,"2023-02-24T00:05:02.854Z"
46,-0.5956909,0.5490698,0.55125976,350,"2023-02-24T00:06:03.417Z"
42,-0.59488034,0.55052,0.5508716,351,"2023-02-24T00:07:03.991Z"
54,0.5184912,-0.037866212,0.8674561,351,"2023-02-24T00:08:04.553Z"
40,0.5156299,-0.024311524,0.86942625,351,"2023-02-24T00:09:05.116Z"
47,0.517124,-0.025910644,0.8685156,351,"2023-02-24T00:10:05.678Z"
43,0.5172119,-0.028449707,0.8686182,351,"2023-02-24T00:11:06.240Z"
42,0.5183496,-0.027783204,0.8681445,351,"2023-02-24T00:12:06.802Z"
46,0.5179688,-0.029418945,0.8677344,351,"2023-02-24T00:13:07.365Z"
43,0.5184546,-0.030568847,0.8675635,351,"2023-02-24T00:14:07.927Z"
39,0.51867676,-0.031672362,0.8676123,351,"2023-02-24T00:15:08.489Z"
46,0.5184961,-0.032365724,0.8674121,351,"2023-02-24T00:16:09.051Z"
39,0.5301318,0.035810545,0.86009765,351,"2023-02-24T00:17:09.614Z"
41,0.52962893,0.035214845,0.8605322,351,"2023-02-24T00:18:10.176Z"
47,0.54237306,0.06630127,0.849895,351,"2023-02-24T00:19:10.738Z"
40,0.5388672,0.0691626,0.8518848,351,"2023-02-24T00:20:11.300Z"
43,0.5398755,0.07032715,0.8518677,351,"2023-02-24T00:21:11.862Z"
43,0.5395239,0.07135498,0.85112303,351,"2023-02-24T00:22:12.425Z"
42,0.53998536,0.071035154,0.851416,351,"2023-02-24T00:23:12.987Z"
43,0.53928465,0.07188965,0.85137206,351,"2023-02-24T00:24:13.549Z"
43,0.53932375,0.0721167,0.85093015,352,"2023-02-24T00:25:14.111Z"
42,0.53923583,0.07141358,0.8514404,352,"2023-02-24T00:26:14.686Z"
40,0.5390503,0.07034668,0.8513843,352,"2023-02-24T00:27:15.248Z"
41,0.5389673,0.070749514,0.85156983,352,"2023-02-24T00:28:15.810Z"
38,0.5412939,0.06924072,0.85081786,352,"2023-02-24T00:29:16.373Z"
43,0.54206055,0.050056152,0.8518408,353,"2023-02-24T00:30:16.935Z"
43,0.5431128,0.0597583,0.85002685,352,"2023-02-24T00:31:17.497Z"
41,0.5431714,0.059968263,0.8505029,353,"2023-02-24T00:32:18.059Z"
42,0.5427393,0.05986328,0.85045165,353,"2023-02-24T00:33:18.621Z"
37,0.54256594,0.05980469,0.8503149,353,"2023-02-24T00:34:19.184Z"
41,0.54274905,0.060715333,0.85041994,353,"2023-02-24T00:35:19.746Z"
42,0.54201174,0.05936279,0.8504394,354,"2023-02-24T00:36:20.308Z"
39,0.5415576,0.058327638,0.8511206,353,"2023-02-24T00:37:20.870Z"
40,0.5419751,0.05784912,0.8508374,354,"2023-02-24T00:38:21.432Z"
40,0.54227537,0.05772705,0.85162354,354,"2023-02-24T00:39:21.995Z"
41,0.54164064,0.05680664,0.8512378,355,"2023-02-24T00:40:22.557Z"
40,0.54180664,0.055625,0.85159665,356,"2023-02-24T00:41:23.119Z"
40,0.5415674,0.05620117,0.85229003,356,"2023-02-24T00:42:23.681Z"
41,0.5413525,0.055754393,0.85185057,357,"2023-02-24T00:43:24.244Z"
42,0.5413623,0.05468506,0.85215575,357,"2023-02-24T00:44:24.806Z"
42,0.5412036,0.055351563,0.8524805,358,"2023-02-24T00:45:25.380Z"
37,0.5412573,0.055095214,0.8523804,358,"2023-02-24T00:46:25.943Z"
40,0.5409326,0.05552002,0.8527539,358,"2023-02-24T00:47:26.505Z"
41,0.54111326,0.055126954,0.85219485,358,"2023-02-24T00:48:27.067Z"
40,0.54076904,0.055341795,0.8522583,358,"2023-02-24T00:49:27.629Z"
37,0.54241455,0.054731444,0.8520093,358,"2023-02-24T00:50:28.191Z"
42,0.5421875,0.054853514,0.8518994,359,"2023-02-24T00:51:28.754Z"
42,0.54213625,0.054958496,0.85161376,359,"2023-02-24T00:52:29.316Z"
38,0.5421704,0.054833986,0.85172117,359,"2023-02-24T00:53:29.878Z"
40,0.5419238,0.054606933,0.85221434,359,"2023-02-24T00:54:30.440Z"
39,0.5424756,0.054470215,0.85170656,359,"2023-02-24T00:55:31.003Z"
42,0.54124755,0.05446289,0.85198975,359,"2023-02-24T00:56:31.565Z"
41,0.5416797,0.05517822,0.8515918,359,"2023-02-24T00:57:32.127Z"
41,0.5419751,0.054396972,0.8524536,359,"2023-02-24T00:58:32.689Z"
38,0.5412915,0.055720214,0.8525,359,"2023-02-24T00:59:33.251Z"
37,0.45779786,-0.11189453,0.89498293,359,"2023-02-24T01:00:33.814Z"
38,0.4910083,-0.1640088,0.87056154,359,"2023-02-24T01:01:34.376Z"
41,0.5325513,-0.20860352,0.8364038,358,"2023-02-24T01:02:34.938Z"
41,0.52876467,-0.18195556,0.8450366,358,"2023-02-24T01:03:35.500Z"
42,0.53035647,-0.19577637,0.8410254,358,"2023-02-24T01:04:36.075Z"
41,0.5299585,-0.19686279,0.8411645,358,"2023-02-24T01:05:36.637Z"
43,0.5298584,-0.19504395,0.84170413,357,"2023-02-24T01:06:37.199Z"
43,0.52982175,-0.19585693,0.8413892,356,"2023-02-24T01:07:37.762Z"
41,0.53029543,-0.19516358,0.8415234,356,"2023-02-24T01:08:38.324Z"
41,0.53017825,-0.19506347,0.84189206,355,"2023-02-24T01:09:38.886Z"
40,0.5302246,-0.19490966,0.8415356,355,"2023-02-24T01:10:39.448Z"
40,0.52973145,-0.19587646,0.84106934,354,"2023-02-24T01:11:40.010Z"
39,0.53019285,-0.19581299,0.8409644,354,"2023-02-24T01:12:40.573Z"
37,0.5125781,-0.09141357,0.867439,354,"2023-02-24T01:13:41.135Z"
38,0.51416016,-0.09170166,0.8672876,353,"2023-02-24T01:14:41.697Z"
41,0.514707,-0.09104248,0.8664673,353,"2023-02-24T01:15:42.260Z"
39,0.5146753,-0.092141114,0.8664331,352,"2023-02-24T01:16:42.822Z"
40,0.51456296,-0.09255859,0.86624026,352,"2023-02-24T01:17:43.384Z"
47,0.5764331,-0.33392823,0.7676294,351,"2023-02-24T01:18:43.946Z"
43,0.5690332,-0.32173583,0.77695554,350,"2023-02-24T01:19:44.508Z"
36,0.5675,-0.33543456,0.7722925,349,"2023-02-24T01:20:45.071Z"
38,0.5697534,0.11083252,0.82772946,349,"2023-02-24T01:21:45.633Z"
42,0.5688965,0.11179688,0.82822263,349,"2023-02-24T01:22:46.195Z"
36,0.5706836,0.102810055,0.82747805,350,"2023-02-24T01:23:46.769Z"
35,0.5702661,0.10601807,0.82771,349,"2023-02-24T01:24:47.331Z"
38,0.5712695,0.10247803,0.8279199,349,"2023-02-24T01:25:47.894Z"
35,0.57073,0.10501221,0.827771,349,"2023-02-24T01:26:48.456Z"
38,0.57155275,0.10038086,0.8273291,349,"2023-02-24T01:27:49.018Z"
40,0.5719409,0.10041992,0.827522,349,"2023-02-24T01:28:49.580Z"
40,0.5722852,0.10196045,0.8271509,349,"2023-02-24T01:29:50.143Z"
56,0.33580077,-0.8094629,0.51571774,349,"2023-02-24T01:30:50.705Z"
41,0.33144042,-0.81163573,0.514021,348,"2023-02-24T01:31:51.267Z"
45,0.3290625,-0.81828856,0.50640625,348,"2023-02-24T01:32:51.829Z"
44,0.32793456,-0.8206567,0.5032324,347,"2023-02-24T01:33:52.391Z"
45,0.32628173,-0.82166016,0.50249755,347,"2023-02-24T01:34:52.954Z"
46,0.32510987,-0.8250879,0.4985083,346,"2023-02-24T01:35:53.516Z"
47,0.32481202,-0.8233398,0.49969727,346,"2023-02-24T01:36:54.063Z"
47,0.32379395,-0.82615477,0.4967749,346,"2023-02-24T01:37:54.625Z"
55,0.65956056,0.11116211,0.76145995,346,"2023-02-24T01:38:55.188Z"
41,0.66312987,0.11174805,0.7577759,345,"2023-02-24T01:39:55.750Z"
43,0.66466063,0.09864258,0.7582275,346,"2023-02-24T01:40:56.312Z"
46,0.6650342,0.097563475,0.7580664,346,"2023-02-24T01:41:56.875Z"
45,0.6647754,0.09982422,0.758457,347,"2023-02-24T01:42:57.449Z"
42,0.66579103,0.09698242,0.7580005,347,"2023-02-24T01:43:58.011Z"
41,0.6699976,0.09445068,0.7546167,348,"2023-02-24T01:44:58.573Z"
48,0.6677002,0.09744629,0.75688475,348,"2023-02-24T01:45:59.136Z"
51,0.6689673,0.09573731,0.75569093,348,"2023-02-24T01:46:59.698Z"
46,0.6687622,0.09829834,0.75587404,348,"2023-02-24T01:48:00.260Z"
46,0.66918457,0.09580567,0.75415283,349,"2023-02-24T01:49:00.823Z"
43,0.6685474,0.09919678,0.755459,349,"2023-02-24T01:50:01.385Z"
46,0.66954345,0.097224124,0.75512207,350,"2023-02-24T01:51:01.947Z"
43,0.6686914,0.09916748,0.7555835,350,"2023-02-24T01:52:02.509Z"
44,0.6690039,0.10076904,0.755564,350,"2023-02-24T01:53:03.071Z"
43,0.66910887,0.09996094,0.7553125,350,"2023-02-24T01:54:03.634Z"
44,0.6699219,0.09962402,0.75466067,350,"2023-02-24T01:55:04.196Z"
43,0.6698486,0.09706299,0.7538501,351,"2023-02-24T01:56:04.758Z"
44,0.6688428,0.100361325,0.75471926,350,"2023-02-24T01:57:05.320Z"
45,0.6698706,0.09909424,0.7545703,351,"2023-02-24T01:58:05.882Z"
65,0.6055688,-0.32647216,0.74859375,350,"2023-02-24T01:59:06.445Z"
43,0.6048706,-0.31900147,0.75124514,348,"2023-02-24T02:00:07.007Z"
44,0.6058276,-0.31679687,0.7520093,348,"2023-02-24T02:01:07.569Z"
48,0.60637206,-0.3155591,0.75207275,349,"2023-02-24T02:02:08.144Z"
44,0.6058667,-0.31471923,0.7527832,349,"2023-02-24T02:03:08.706Z"
42,0.60720706,-0.3148828,0.75160646,349,"2023-02-24T02:04:09.268Z"
41,0.6065918,-0.31466797,0.7508179,349,"2023-02-24T02:05:09.831Z"
43,0.60639894,-0.31367433,0.7524414,349,"2023-02-24T02:06:10.393Z"
41,0.6075366,-0.31312987,0.75205564,349,"2023-02-24T02:07:10.955Z"
42,0.60703367,-0.31362548,0.75228274,349,"2023-02-24T02:08:11.517Z"
45,0.6036548,-0.3087549,0.7571167,349,"2023-02-24T02:09:12.079Z"
42,0.6032398,-0.30802736,0.75721437,349,"2023-02-24T02:10:12.642Z"
44,0.6029834,-0.30705565,0.7572852,349,"2023-02-24T02:11:13.204Z"
44,0.60360354,-0.30755615,0.75774413,349,"2023-02-24T02:12:13.766Z"
50,0.6716064,-0.07596924,0.75674075,349,"2023-02-24T02:13:14.328Z"
38,0.6671582,-0.045656737,0.764292,350,"2023-02-24T02:14:14.891Z"
40,0.6656177,-0.046188965,0.7646533,350,"2023-02-24T02:15:15.453Z"
40,0.67313963,-0.09091553,0.7550757,349,"2023-02-24T02:16:16.015Z"
38,0.67244387,-0.09125976,0.7558374,349,"2023-02-24T02:17:16.577Z"
36,0.67242676,-0.09115967,0.75595456,350,"2023-02-24T02:18:17.139Z"
36,0.6714233,-0.09097412,0.7563403,350,"2023-02-24T02:19:17.702Z"
39,0.71293455,0.09911621,0.7153906,350,"2023-02-24T02:20:18.264Z"
37,0.71256834,0.10043457,0.7161304,351,"2023-02-24T02:21:18.838Z"
40,0.71237063,0.10097412,0.71641356,351,"2023-02-24T02:22:19.401Z"
50,0.685791,-0.04777588,0.74792236,350,"2023-02-24T02:23:19.962Z"
38,0.6808325,-0.056950685,0.7512207,351,"2023-02-24T02:24:20.525Z"
39,0.68182373,-0.058049317,0.75116456,351,"2023-02-24T02:25:21.087Z"
39,0.6814331,-0.05800293,0.7511621,351,"2023-02-24T02:26:21.650Z"
37,0.6810742,-0.05576904,0.75236815,351,"2023-02-24T02:27:22.212Z"
38,0.68059814,-0.0563916,0.751958,351,"2023-02-24T02:28:22.774Z"
36,0.6803906,-0.054760743,0.7523071,351,"2023-02-24T02:29:23.336Z"
37,0.6803174,-0.054624025,0.7527319,351,"2023-02-24T02:30:23.898Z"
38,0.68065673,-0.05279297,0.7517749,351,"2023-02-24T02:31:24.461Z"
41,0.6806787,-0.053530272,0.75233155,351,"2023-02-24T02:32:25.023Z"
43,0.67996824,-0.051728517,0.752334,351,"2023-02-24T02:33:25.584Z"
40,0.6798828,-0.051845703,0.75264895,352,"2023-02-24T02:34:26.147Z"
44,0.6140137,-0.10102051,0.8010669,351,"2023-02-24T02:35:26.709Z"
46,0.693208,-0.26731202,0.69693357,352,"2023-02-24T02:36:27.272Z"
37,0.6853442,-0.24852782,0.7110571,351,"2023-02-24T02:37:27.834Z"
39,0.68592775,-0.2486499,0.71010256,350,"2023-02-24T02:38:28.396Z"
40,0.6859839,-0.24826904,0.7103125,349,"2023-02-24T02:39:28.958Z"
43,0.6862036,-0.24773194,0.7096362,350,"2023-02-24T02:40:29.529Z"
40,0.6864673,-0.24791016,0.7094092,349,"2023-02-24T02:41:30.095Z"
40,0.6872754,-0.2470752,0.7098926,349,"2023-02-24T02:42:30.657Z"
38,0.6877368,-0.24750732,0.7080835,349,"2023-02-24T02:43:31.219Z"
40,0.6879028,-0.24693604,0.7087231,349,"2023-02-24T02:44:31.782Z"
39,0.6880493,-0.24672608,0.70925784,349,"2023-02-24T02:45:32.344Z"
41,0.68769777,-0.24596679,0.70900637,348,"2023-02-24T02:46:32.906Z"
38,0.68759036,-0.24681884,0.70933837,349,"2023-02-24T02:47:33.469Z"
37,0.6883008,-0.24682128,0.70882326,349,"2023-02-24T02:48:34.031Z"
38,0.68793213,-0.24624512,0.7089624,348,"2023-02-24T02:49:34.593Z"
42,0.688208,-0.24680664,0.70860106,348,"2023-02-24T02:50:35.155Z"
38,0.68781006,-0.2457373,0.7092065,348,"2023-02-24T02:51:35.718Z"
37,0.688418,-0.24577881,0.7092993,348,"2023-02-24T02:52:36.280Z"
39,0.688396,-0.24617676,0.70833987,348,"2023-02-24T02:53:36.841Z"
58,0.62988526,-0.08633056,0.7906274,348,"2023-02-24T02:54:37.404Z"
51,-0.5837744,-0.75205076,0.29114014,348,"2023-02-24T02:55:37.966Z"
47,-0.5425708,-0.7616626,0.34559572,347,"2023-02-24T02:56:38.529Z"
42,-0.5405884,-0.7637817,0.34568605,346,"2023-02-24T02:57:39.091Z"
43,-0.5414429,-0.7655444,0.33985597,345,"2023-02-24T02:58:39.653Z"
42,-0.53677976,-0.7671167,0.3441162,345,"2023-02-24T02:59:40.224Z"
55,-0.53760743,-0.7679492,0.3406079,345,"2023-02-24T03:00:40.775Z"
75,-0.5343897,-0.76799315,0.34506837,344,"2023-02-24T03:01:41.337Z"
71,-0.53536135,-0.76895994,0.34240234,343,"2023-02-24T03:02:41.900Z"
69,-0.5357349,-0.76919436,0.34066162,343,"2023-02-24T03:03:42.462Z"
70,-0.5313745,-0.7647876,0.356604,343,"2023-02-24T03:04:43.024Z"
72,-0.53114504,-0.7654834,0.3560254,342,"2023-02-24T03:05:43.586Z"
68,-0.52784425,-0.7658252,0.3595288,342,"2023-02-24T03:06:44.149Z"
70,-0.5287622,-0.76653564,0.35801026,342,"2023-02-24T03:07:44.711Z"
82,-0.3827368,0.6217578,0.66027343,341,"2023-02-24T03:08:45.273Z"
36,-0.3708545,0.61534667,0.67289305,340,"2023-02-24T03:09:45.835Z"
42,-0.3705127,0.61348146,0.6750586,341,"2023-02-24T03:10:46.397Z"
40,-0.36697754,0.6137964,0.67696047,341,"2023-02-24T03:11:46.960Z"
37,-0.3660669,0.61368406,0.67726564,342,"2023-02-24T03:12:47.522Z"
39,-0.36489746,0.61365235,0.6782568,342,"2023-02-24T03:13:48.084Z"
37,-0.36354247,0.61373293,0.6789014,343,"2023-02-24T03:14:48.646Z"
41,-0.36558592,0.6127515,0.6787915,343,"2023-02-24T03:15:49.209Z"
39,-0.36595458,0.6123657,0.6786719,343,"2023-02-24T03:16:49.771Z"
41,-0.362583,0.61398196,0.68032956,343,"2023-02-24T03:17:50.333Z"
38,-0.36366454,0.61304444,0.6794019,343,"2023-02-24T03:18:50.904Z"
42,-0.36391112,0.6126929,0.67908937,344,"2023-02-24T03:19:51.470Z"
40,-0.36347657,0.613042,0.67985594,343,"2023-02-24T03:20:52.032Z"
36,-0.36193848,0.6127661,0.6810083,343,"2023-02-24T03:21:52.594Z"
41,-0.35912842,0.61402833,0.6809033,343,"2023-02-24T03:22:53.157Z"
39,-0.36267823,0.61323,0.6793115,342,"2023-02-24T03:23:53.719Z"
40,-0.36148927,0.6141553,0.6803711,343,"2023-02-24T03:24:54.281Z"
42,-0.35779297,0.6139014,0.6819946,342,"2023-02-24T03:25:54.843Z"
41,0.1451172,-0.047666017,0.98885745,346,"2023-02-24T03:26:55.406Z"
37,0.18436523,-0.015979003,0.9840454,346,"2023-02-24T03:27:55.968Z"
43,0.17956787,-0.013359375,0.98514646,346,"2023-02-24T03:28:56.530Z"
46,0.5013672,-0.18516846,0.86008054,345,"2023-02-24T03:29:57.092Z"
34,0.50289065,-0.20301513,0.85557127,345,"2023-02-24T03:30:57.655Z"
42,0.5033545,-0.2064087,0.8535669,345,"2023-02-24T03:31:58.217Z"
41,0.503855,-0.20822755,0.85345703,345,"2023-02-24T03:32:58.779Z"
45,0.5042163,-0.21215087,0.85245603,345,"2023-02-24T03:33:59.341Z"
43,0.50391114,-0.21549805,0.85128903,345,"2023-02-24T03:34:59.903Z"
45,0.50443846,-0.21244384,0.85237306,345,"2023-02-24T03:36:00.466Z"
53,0.5342187,-0.25131348,0.82394046,345,"2023-02-24T03:37:01.028Z"
46,-0.39931884,-0.051640626,0.9013892,346,"2023-02-24T03:38:01.598Z"
42,-0.3958789,-0.057487793,0.9032544,346,"2023-02-24T03:39:02.165Z"
46,-0.39386475,-0.058854982,0.9035986,346,"2023-02-24T03:40:02.727Z"
46,-0.39595458,-0.06007324,0.90321046,345,"2023-02-24T03:41:03.289Z"
45,-0.39654785,-0.05807129,0.9019873,346,"2023-02-24T03:42:03.837Z"
44,-0.3933252,-0.058798827,0.9041797,346,"2023-02-24T03:43:04.399Z"
63,0.5506323,-0.07852783,0.8453882,346,"2023-02-24T03:44:04.961Z"
40,0.55176514,-0.05703613,0.84607667,346,"2023-02-24T03:45:05.523Z"
44,0.5511084,-0.057175294,0.84659666,346,"2023-02-24T03:46:06.086Z"
44,0.5506079,-0.058134764,0.8471289,346,"2023-02-24T03:47:06.648Z"
46,0.550564,-0.05737793,0.84686035,346,"2023-02-24T03:48:07.210Z"
44,0.5614307,0.030744629,0.84029543,347,"2023-02-24T03:49:07.772Z"
37,0.6425,-0.048598632,0.7831201,347,"2023-02-24T03:50:08.334Z"
41,0.64210695,-0.05099365,0.78423584,347,"2023-02-24T03:51:08.897Z"
47,0.6397803,-0.060773924,0.7849609,348,"2023-02-24T03:52:09.459Z"
43,0.6409082,-0.060595702,0.7835449,348,"2023-02-24T03:53:10.021Z"
42,0.63849366,-0.07457276,0.78485596,348,"2023-02-24T03:54:10.583Z"
39,0.6391187,-0.07548584,0.78431886,348,"2023-02-24T03:55:11.146Z"
39,0.6383228,-0.075954586,0.7847925,349,"2023-02-24T03:56:11.708Z"
44,0.50766844,-0.59744143,0.5188452,349,"2023-02-24T03:57:12.278Z"
34,0.19190186,-0.99428713,0.09970947,346,"2023-02-24T03:58:12.845Z"
43,0.19040284,-0.9949463,0.10397461,344,"2023-02-24T03:59:13.407Z"
40,0.19066407,-0.99400634,0.110500485,344,"2023-02-24T04:00:13.969Z"
38,0.19,-0.9926392,0.11757324,343,"2023-02-24T04:01:14.531Z"
40,0.18928955,-0.992334,0.1201709,343,"2023-02-24T04:02:15.094Z"
42,0.18817872,-0.99267334,0.1233667,343,"2023-02-24T04:03:15.656Z"
45,0.18877198,-0.99184084,0.12511963,343,"2023-02-24T04:04:16.218Z"
44,0.18753663,-0.9923828,0.12576172,343,"2023-02-24T04:05:16.780Z"
39,0.19270752,-0.9859936,0.1593457,343,"2023-02-24T04:06:17.343Z"
39,0.19132812,-0.98590577,0.16146728,343,"2023-02-24T04:07:17.905Z"
46,0.19029053,-0.986294,0.16255616,343,"2023-02-24T04:08:18.467Z"
41,0.19050537,-0.9855371,0.16449463,343,"2023-02-24T04:09:19.029Z"
45,0.1885205,-0.98611814,0.16354248,343,"2023-02-24T04:10:19.591Z"
44,0.19178955,-0.985957,0.16497803,343,"2023-02-24T04:11:20.154Z"
37,0.5160278,0.4799658,0.7195679,344,"2023-02-24T04:12:20.716Z"
43,0.51047605,0.46911377,0.7299658,345,"2023-02-24T04:13:21.278Z"
42,0.5203662,0.4886377,0.7114624,346,"2023-02-24T04:14:21.840Z"
43,0.517959,0.48552245,0.7151538,347,"2023-02-24T04:15:22.403Z"
43,0.5183032,0.4843994,0.71577394,348,"2023-02-24T04:16:22.973Z"
41,0.5167822,0.48343506,0.7172607,349,"2023-02-24T04:17:23.539Z"
45,0.516145,0.4837866,0.7178076,350,"2023-02-24T04:18:24.102Z"
45,0.5151538,0.48286378,0.71882814,350,"2023-02-24T04:19:24.664Z"
43,0.514436,0.48158935,0.72021484,351,"2023-02-24T04:20:25.226Z"
45,0.5137646,0.47882813,0.72211426,351,"2023-02-24T04:21:25.788Z"
45,0.52597165,0.49977782,0.69999754,352,"2023-02-24T04:22:26.350Z"
41,0.5250391,0.500354,0.70017576,353,"2023-02-24T04:23:26.913Z"
44,0.52417725,0.50043947,0.70095944,354,"2023-02-24T04:24:27.475Z"
38,0.52356446,0.4995508,0.702168,354,"2023-02-24T04:25:28.037Z"
45,0.5230884,0.4995459,0.7015771,354,"2023-02-24T04:26:28.599Z"
35,0.6519385,-0.34510985,0.70234865,354,"2023-02-24T04:27:29.161Z"
42,0.6482422,-0.34976563,0.70297605,353,"2023-02-24T04:28:29.724Z"
44,0.65128905,-0.36205077,0.69413817,353,"2023-02-24T04:29:30.286Z"
40,0.65154296,-0.3560376,0.69693846,353,"2023-02-24T04:30:30.848Z"
41,0.66071045,-0.34204835,0.69481444,352,"2023-02-24T04:31:31.410Z"
40,0.66190916,-0.3306421,0.6992822,352,"2023-02-24T04:32:31.973Z"
44,0.66376466,-0.3292969,0.6987817,352,"2023-02-24T04:33:32.535Z"
37,0.6634497,-0.3290039,0.699104,352,"2023-02-24T04:34:33.097Z"
43,0.6636255,-0.329021,0.6985913,351,"2023-02-24T04:35:33.667Z"
43,0.6667407,-0.32815674,0.6961206,352,"2023-02-24T04:36:34.234Z"
41,0.66688967,-0.32846436,0.6954468,351,"2023-02-24T04:37:34.796Z"
38,0.66728026,-0.32808837,0.6951416,351,"2023-02-24T04:38:35.358Z"
42,0.6657764,-0.3328882,0.69431394,351,"2023-02-24T04:39:35.920Z"
41,0.6668652,-0.33093995,0.69394773,351,"2023-02-24T04:40:36.483Z"
44,0.6436841,-0.1669751,0.7682446,350,"2023-02-24T04:41:37.045Z"
45,0.64375734,-0.16311035,0.7690283,349,"2023-02-24T04:42:37.607Z"
55,-0.6088916,0.4941455,-0.60731936,349,"2023-02-24T04:43:38.169Z"
42,-0.6060571,0.5058984,-0.6013306,350,"2023-02-24T04:44:38.732Z"
45,-0.60396487,0.5074243,-0.60190916,350,"2023-02-24T04:45:39.294Z"
42,-0.60237795,0.51435304,-0.59763426,350,"2023-02-24T04:46:39.856Z"
43,-0.6000879,0.5155444,-0.5984985,351,"2023-02-24T04:47:40.418Z"
42,-0.6003247,0.5152271,-0.59914064,351,"2023-02-24T04:48:40.980Z"
43,-0.6009228,0.51745605,-0.5968042,352,"2023-02-24T04:49:41.543Z"
40,-0.6001001,0.51660645,-0.59805906,352,"2023-02-24T04:50:42.105Z"
45,-0.59601074,0.5143164,-0.6039966,352,"2023-02-24T04:51:42.667Z"
41,-0.59566164,0.51567626,-0.60332763,353,"2023-02-24T04:52:43.229Z"
44,0.6542285,-0.7423486,-0.10456299,353,"2023-02-24T04:53:43.792Z"
78,-0.32966554,0.85426515,-0.3285205,351,"2023-02-24T04:54:44.362Z"
78,0.29417968,0.9270923,0.19343506,346,"2023-02-24T04:55:44.928Z"
83,-0.587063,0.7432031,0.2701367,341,"2023-02-24T04:56:45.491Z"
71,0.33942628,0.9280322,-0.09150147,336,"2023-02-24T04:57:46.053Z"
60,-0.115786135,0.98365235,0.0687793,334,"2023-02-24T04:58:46.615Z"
67,-0.04128662,0.99437743,-0.030449219,332,"2023-02-24T04:59:47.177Z"
77,0.55529296,0.4698926,-0.6796436,331,"2023-02-24T05:00:47.725Z"
52,0.10771485,-0.9749927,-0.26586425,328,"2023-02-24T05:01:48.287Z"
43,0.103674315,-0.99479,-0.1776294,324,"2023-02-24T05:02:48.849Z"
45,0.09680176,-0.99734616,-0.16942383,325,"2023-02-24T05:03:49.412Z"
40,0.09622559,-0.9971924,-0.16973633,329,"2023-02-24T05:04:49.974Z"
41,0.09619385,-0.99687254,-0.17103271,333,"2023-02-24T05:05:50.536Z"
39,0.09553711,-0.99705076,-0.17468506,336,"2023-02-24T05:06:51.098Z"
39,0.09561524,-0.9961084,-0.17630859,338,"2023-02-24T05:07:51.661Z"
39,0.09536865,-0.99588376,-0.17564698,340,"2023-02-24T05:08:52.223Z"
41,0.095952146,-0.99564695,-0.17804688,341,"2023-02-24T05:09:52.785Z"
38,0.096333005,-0.9955151,-0.1785962,342,"2023-02-24T05:10:53.347Z"
40,0.096206054,-0.99633545,-0.17942138,343,"2023-02-24T05:11:53.909Z"
39,0.096386716,-0.99498045,-0.18186279,344,"2023-02-24T05:12:54.472Z"
40,0.09639648,-0.99460447,-0.18209472,345,"2023-02-24T05:13:55.034Z"
39,0.096137695,-0.9947803,-0.18339355,345,"2023-02-24T05:14:55.596Z"
41,0.09612305,-0.9948169,-0.18365967,346,"2023-02-24T05:15:56.158Z"
44,0.09661133,-0.9947241,-0.18298584,346,"2023-02-24T05:16:56.721Z"
41,0.09667236,-0.9941553,-0.1838623,347,"2023-02-24T05:17:57.283Z"
39,0.09647949,-0.9944873,-0.18403564,348,"2023-02-24T05:18:57.845Z"
40,0.096354984,-0.9941772,-0.18484375,348,"2023-02-24T05:19:58.407Z"
41,0.096364744,-0.9940112,-0.185813,348,"2023-02-24T05:20:58.969Z"
43,0.09704834,-0.99440676,-0.18509278,348,"2023-02-24T05:21:59.532Z"
39,0.097287595,-0.9938794,-0.18754883,348,"2023-02-24T05:23:00.094Z"
56,0.051206056,-1.0063379,-0.122526854,349,"2023-02-24T05:24:00.656Z"
42,0.05091797,-1.0061377,-0.122268066,347,"2023-02-24T05:25:01.219Z"
43,0.051987305,-1.0064893,-0.12279053,347,"2023-02-24T05:26:01.781Z"
44,0.051774904,-1.0058789,-0.1244458,347,"2023-02-24T05:27:02.343Z"
60,0.76211184,0.32647216,0.5842822,346,"2023-02-24T05:28:02.905Z"
42,0.7576123,0.34344727,0.5794116,347,"2023-02-24T05:29:03.467Z"
44,0.75721925,0.3456909,0.57903075,347,"2023-02-24T05:30:04.030Z"
36,0.09280029,-1.008396,-0.075026855,346,"2023-02-24T05:31:04.592Z"
38,0.09016602,-1.008164,-0.08050293,343,"2023-02-24T05:32:05.154Z"
40,0.08880371,-1.0079492,-0.08527832,341,"2023-02-24T05:33:05.716Z"
40,0.088986814,-1.008435,-0.08762207,339,"2023-02-24T05:34:06.287Z"
39,0.08862305,-1.006189,-0.101777345,338,"2023-02-24T05:35:06.853Z"
43,0.08824951,-1.0059985,-0.105280764,337,"2023-02-24T05:36:07.415Z"
40,0.086989745,-1.006565,-0.107172854,336,"2023-02-24T05:37:07.977Z"
40,0.086591795,-1.0056372,-0.11754394,335,"2023-02-24T05:38:08.539Z"
38,0.08704101,-1.005061,-0.1205957,335,"2023-02-24T05:39:09.102Z"
64,0.9444702,0.29839355,0.16675538,335,"2023-02-24T05:40:09.664Z"
77,-0.70430666,0.65469724,0.094331056,332,"2023-02-24T05:41:10.226Z"
68,0.23900878,0.8061548,-0.5626294,330,"2023-02-24T05:42:10.788Z"
69,0.27631837,0.88412595,0.37092286,329,"2023-02-24T05:43:11.351Z"
65,0.40340576,0.745896,0.51552737,328,"2023-02-24T05:44:11.913Z"
66,0.66922605,0.47909424,-0.59839356,327,"2023-02-24T05:45:12.460Z"
63,0.18083741,0.8761987,0.45132813,326,"2023-02-24T05:46:13.022Z"
67,0.2624341,0.35278565,0.89179444,325,"2023-02-24T05:47:13.585Z"
73,-0.89940184,0.38192382,-0.106547855,326,"2023-02-24T05:48:14.147Z"
62,-0.9341186,0.30033204,-0.016166992,326,"2023-02-24T05:49:14.709Z"
65,0.35165527,0.8537891,-0.40553465,325,"2023-02-24T05:50:15.271Z"
63,0.28027344,0.67757326,0.674773,322,"2023-02-24T05:51:15.833Z"
62,0.24804688,0.0183667,0.9221753,321,"2023-02-24T05:52:16.396Z"
61,0.29258302,0.34758544,0.8916943,320,"2023-02-24T05:53:16.958Z"
64,0.2772705,0.6131396,0.7274487,319,"2023-02-24T05:54:17.520Z"
64,0.2682373,0.85792726,0.4197168,318,"2023-02-24T05:55:18.083Z"
65,0.24060547,0.949812,0.20271485,317,"2023-02-24T05:56:18.645Z"
64,0.3654297,0.65169436,0.66454834,317,"2023-02-24T05:57:19.207Z"
72,0.23029298,0.70184815,0.6604248,316,"2023-02-24T05:58:19.769Z"
69,0.009233398,0.931311,0.37376708,315,"2023-02-24T05:59:20.332Z"
68,0.28491944,0.8342334,0.47727296,314,"2023-02-24T06:00:20.894Z"
65,0.3693408,0.8013623,0.45446533,313,"2023-02-24T06:01:21.456Z"
67,0.5486279,0.8354419,0.0033764648,313,"2023-02-24T06:02:22.018Z"
87,-0.8897876,0.4024292,-0.11819336,313,"2023-02-24T06:03:22.581Z"
55,0.2829712,0.80111575,-0.5427295,313,"2023-02-24T06:04:23.143Z"
59,0.007145996,0.81277347,-0.587417,313,"2023-02-24T06:05:23.705Z"
62,0.38605225,0.77589357,-0.517854,311,"2023-02-24T06:06:24.267Z"
53,0.20656006,0.64854,-0.7428955,311,"2023-02-24T06:07:24.830Z"
53,-0.010026855,0.7562646,-0.6588696,312,"2023-02-24T06:08:25.392Z"
52,-0.017873535,0.76317626,-0.6514038,312,"2023-02-24T06:09:25.954Z"
56,-0.012399903,0.76911134,-0.64504397,311,"2023-02-24T06:10:26.516Z"
57,0.01666748,0.643501,-0.77283204,310,"2023-02-24T06:11:27.079Z"
52,0.027414551,0.71003664,-0.7105664,309,"2023-02-24T06:12:27.641Z"
51,0.0774878,0.7163843,-0.7009912,305,"2023-02-24T06:13:28.203Z"
55,0.052399904,0.70155275,-0.71821535,301,"2023-02-24T06:14:28.765Z"
55,0.013386231,0.7197119,-0.7008569,301,"2023-02-24T06:15:29.328Z"
59,-0.016145019,0.79631835,-0.6087402,302,"2023-02-24T06:16:29.890Z"
53,-0.010410156,0.782417,-0.62773925,302,"2023-02-24T06:17:30.452Z"
63,-0.85732424,-0.35093263,-0.4052832,299,"2023-02-24T06:18:31.014Z"
81,-0.69952637,0.6227319,0.2569629,297,"2023-02-24T06:19:31.577Z"
74,0.33335936,0.7781006,-0.20881103,296,"2023-02-24T06:20:32.139Z"
67,0.44108886,0.74120605,-0.46854737,296,"2023-02-24T06:21:32.701Z"
52,0.23499511,0.8878467,-0.41149902,296,"2023-02-24T06:22:33.264Z"
54,0.2324707,0.91911864,-0.3348413,296,"2023-02-24T06:23:33.826Z"
50,0.25218993,0.8288037,-0.5147217,294,"2023-02-24T06:24:34.388Z"
55,0.68413085,0.733208,-0.14438964,293,"2023-02-24T06:25:34.950Z"
52,0.33256105,0.9356128,-0.101696774,291,"2023-02-24T06:26:35.513Z"
57,0.10328613,0.57610106,0.80449706,292,"2023-02-24T06:27:36.075Z"
54,0.4995166,0.8134351,-0.33110595,293,"2023-02-24T06:28:36.637Z"
70,0.22849853,0.90156007,-0.37634033,292,"2023-02-24T06:29:37.199Z"
49,0.44650635,0.8807495,-0.20766358,293,"2023-02-24T06:30:37.762Z"
50,0.26448485,0.9122754,-0.33468017,293,"2023-02-24T06:31:38.324Z"
47,-0.033151854,0.92633057,-0.376958,293,"2023-02-24T06:32:38.886Z"
48,0.1872168,0.8534058,-0.49646974,295,"2023-02-24T06:33:39.448Z"
67,0.24447998,0.8904004,-0.39690673,293,"2023-02-24T06:34:40.011Z"
49,0.20123535,0.7437964,0.6340747,293,"2023-02-24T06:35:40.573Z"
57,0.48526612,0.85213137,-0.24000488,293,"2023-02-24T06:36:41.135Z"
57,0.382771,0.8639795,-0.35220703,293,"2023-02-24T06:37:41.698Z"
63,0.5384326,0.81645507,-0.2538208,293,"2023-02-24T06:38:42.260Z"
62,0.56087893,0.8281885,-0.13215087,292,"2023-02-24T06:39:42.822Z"
62,0.43355224,0.8316162,-0.37364015,293,"2023-02-24T06:40:43.385Z"
67,0.6297412,0.77850586,-0.15000732,293,"2023-02-24T06:41:43.947Z"
55,0.59816897,0.79838866,-0.16500977,293,"2023-02-24T06:42:44.509Z"
57,0.7176465,0.41424316,0.583667,292,"2023-02-24T06:43:45.071Z"
53,0.45252687,0.8187744,-0.37867677,294,"2023-02-24T06:44:45.634Z"
50,0.6788257,0.7201099,-0.22218506,294,"2023-02-24T06:45:46.196Z"
65,0.5329639,0.8112134,-0.28426024,294,"2023-02-24T06:46:46.758Z"
58,0.5412012,0.81162596,-0.25526124,294,"2023-02-24T06:47:47.320Z"
71,0.2448413,0.6644287,-0.7256445,295,"2023-02-24T06:48:47.883Z"
71,-0.2574463,0.9340112,-0.26309326,296,"2023-02-24T06:49:48.445Z"
70,-0.47961915,0.7351416,-0.36743653,296,"2023-02-24T06:50:49.007Z"
69,0.14388184,0.8514111,-0.4820386,296,"2023-02-24T06:51:49.569Z"
70,-0.10318848,0.57676023,-0.80527097,295,"2023-02-24T06:52:50.132Z"
75,-0.055791017,0.9959204,-0.036672365,295,"2023-02-24T06:53:50.694Z"
74,-0.16971436,0.91634035,-0.23958497,295,"2023-02-24T06:54:51.256Z"
85,0.5705273,0.27835938,0.598562,295,"2023-02-24T06:55:51.819Z"
80,-0.6025049,0.5741797,-0.12883301,295,"2023-02-24T06:56:52.381Z"
92,-0.48177,0.80984616,0.16264649,295,"2023-02-24T06:57:52.943Z"
92,-0.34211913,0.7393066,0.55395263,294,"2023-02-24T06:58:53.505Z"
87,-0.45724365,0.49964112,0.70301515,294,"2023-02-24T06:59:54.068Z"
81,-0.43416992,0.7621826,0.44761717,294,"2023-02-24T07:00:54.630Z"
69,-0.26757324,0.89418703,0.1563037,296,"2023-02-24T07:01:55.192Z"
67,0.14630616,0.7773584,-0.6448828,297,"2023-02-24T07:02:55.754Z"
69,-0.15215331,0.6183911,0.06424805,295,"2023-02-24T07:03:56.317Z"
80,-0.40460694,0.84178466,-0.21724366,296,"2023-02-24T07:04:56.879Z"
77,0.19948974,1.0854443,-0.46878907,297,"2023-02-24T07:05:57.441Z"
86,-0.645022,0.75654054,0.0018334961,296,"2023-02-24T07:06:58.003Z"
77,-0.20222656,0.6575415,0.7075073,296,"2023-02-24T07:07:58.566Z"
73,-0.10725586,0.70804197,0.037111815,295,"2023-02-24T07:08:59.128Z"
68,0.043474123,0.87071043,0.5015259,296,"2023-02-24T07:09:59.690Z"
74,-0.48471925,0.5472998,-0.7070703,296,"2023-02-24T07:11:00.253Z"
61,0.17890625,0.8880322,0.25067872,297,"2023-02-24T07:12:00.815Z"
64,-0.8938916,0.258584,0.2150293,298,"2023-02-24T07:13:01.377Z"
75,0.02826172,0.50775635,-0.84640384,297,"2023-02-24T07:14:01.939Z"
84,-0.13980225,0.76064944,0.612251,296,"2023-02-24T07:15:02.502Z"
84,-0.11902588,0.8499756,0.5873193,294,"2023-02-24T07:16:03.064Z"
84,-0.28091797,0.6729028,0.640061,299,"2023-02-24T07:17:03.626Z"
83,0.29952392,0.8737842,-0.40171388,300,"2023-02-24T07:18:04.188Z"
76,-0.3673584,0.8088818,0.4165796,300,"2023-02-24T07:19:04.751Z"
78,0.12778077,0.60582274,0.6864917,300,"2023-02-24T07:20:05.313Z"
77,0.06830322,0.8415186,-0.07160156,302,"2023-02-24T07:21:05.875Z"
74,-0.19126953,0.81679934,0.519541,300,"2023-02-24T07:22:06.438Z"
81,-0.25356445,0.7309936,0.60278565,302,"2023-02-24T07:23:07.000Z"
74,0.07716553,0.90873533,0.4198828,300,"2023-02-24T07:24:07.562Z"
75,0.14655761,0.88979006,0.5338794,303,"2023-02-24T07:25:08.124Z"
77,-0.24749756,0.8106958,0.48789552,302,"2023-02-24T07:26:08.687Z"
77,-0.31510255,0.7076636,0.5950244,301,"2023-02-24T07:27:09.249Z"
76,-0.26569825,0.9661841,-0.0051147463,304,"2023-02-24T07:28:09.811Z"
68,0.13335693,0.48433593,-0.87616944,305,"2023-02-24T07:29:10.373Z"
67,-0.25232178,0.78700197,0.33331054,305,"2023-02-24T07:30:10.936Z"
72,-0.6331421,0.63763916,0.24004151,304,"2023-02-24T07:31:11.498Z"
77,0.024033204,0.94098145,0.2721094,306,"2023-02-24T07:32:12.060Z"
76,-0.7015112,0.6623706,0.11653076,304,"2023-02-24T07:33:12.622Z"
76,-0.17916016,0.92531496,0.2360205,303,"2023-02-24T07:34:13.185Z"
79,-0.43005127,0.039423827,0.8441968,304,"2023-02-24T07:35:13.747Z"
76,-0.19203125,0.9178296,0.2388208,304,"2023-02-24T07:36:14.309Z"
62,0.12017822,0.79658204,-0.42260987,305,"2023-02-24T07:37:14.871Z"
76,-0.6131909,0.761189,-0.17293945,306,"2023-02-24T07:38:15.434Z"
69,0.38668457,0.7191968,0.01852539,305,"2023-02-24T07:39:15.996Z"
77,0.20213868,0.91791505,0.13272217,305,"2023-02-24T07:40:16.558Z"
74,0.087641604,0.54547364,0.7478662,306,"2023-02-24T07:41:17.120Z"
77,-0.038461912,0.8244922,-0.31735596,308,"2023-02-24T07:42:17.683Z"
89,-0.7596729,0.5528638,-0.35120118,308,"2023-02-24T07:43:18.245Z"
87,0.028183594,0.5636401,-0.82108396,307,"2023-02-24T07:44:18.807Z"
78,-0.90995115,0.17657715,-0.49472412,307,"2023-02-24T07:45:19.369Z"
90,-0.76965576,0.6499805,-0.113098145,306,"2023-02-24T07:46:19.932Z"
85,-0.21403809,0.83458495,0.46509767,307,"2023-02-24T07:47:20.494Z"
82,-0.94345456,0.21224853,0.120598145,307,"2023-02-24T07:48:21.056Z"
102,0.6337915,0.695249,-0.32372314,310,"2023-02-24T07:49:21.618Z"
110,-0.79394776,0.46283937,0.3041919,300,"2023-02-24T07:50:22.181Z"
98,-0.13097411,0.9946338,0.08198486,302,"2023-02-24T07:51:22.743Z"
96,-0.34858155,0.92004395,0.010686035,303,"2023-02-24T07:52:23.305Z"
85,-0.7813355,0.60250735,-0.06277588,304,"2023-02-24T07:53:23.867Z"
62,0.028149415,0.67041993,0.72923094,305,"2023-02-24T07:54:24.430Z"
67,-0.40233642,0.8625464,0.27309814,306,"2023-02-24T07:55:24.992Z"
61,-0.810813,0.5460742,-0.08905517,305,"2023-02-24T07:56:25.554Z"
61,0.44372803,0.8821191,-0.20343506,301,"2023-02-24T07:57:26.116Z"
79,-0.6249683,0.7563086,0.04070801,299,"2023-02-24T07:58:26.679Z"
91,-0.92272216,0.34500733,0.07288818,299,"2023-02-24T07:59:27.241Z"
90,-0.8478638,0.54647946,-0.14357422,297,"2023-02-24T08:00:27.803Z"
87,-0.88945556,0.33612794,0.104729004,293,"2023-02-24T08:01:28.365Z"
62,-0.9502661,0.25535402,-0.05620117,291,"2023-02-24T08:02:28.928Z"
81,-0.950791,0.21683593,0.14398193,288,"2023-02-24T08:03:29.490Z"
92,-0.82795167,0.53350097,0.20433837,287,"2023-02-24T08:04:30.052Z"
90,0.72265136,0.081472166,0.6639331,287,"2023-02-24T08:05:30.615Z"
86,-0.98320556,0.51930666,0.05109131,287,"2023-02-24T08:06:31.177Z"
88,0.26020995,0.7607593,-0.5926001,287,"2023-02-24T08:07:31.739Z"
92,0.37515625,0.48674804,0.79203856,285,"2023-02-24T08:08:32.287Z"
89,0.26989746,0.84884524,-0.4694214,284,"2023-02-24T08:09:32.849Z"
77,0.40562257,0.887146,-0.25898683,284,"2023-02-24T08:10:33.411Z"
68,0.41153076,0.91519284,0.067209475,285,"2023-02-24T08:11:33.973Z"
66,0.42475832,0.7649951,0.44284913,284,"2023-02-24T08:12:34.536Z"
63,0.40156737,0.915918,-0.12390869,285,"2023-02-24T08:13:35.098Z"
67,0.40858886,0.92033935,0.010722656,285,"2023-02-24T08:14:35.660Z"
66,0.40830323,0.9047754,0.15954345,286,"2023-02-24T08:15:36.222Z"
66,0.39226073,0.87694824,0.29178223,285,"2023-02-24T08:16:36.785Z"
67,0.37926757,0.9328272,0.025854493,286,"2023-02-24T08:17:37.347Z"
67,0.39092284,0.9064746,0.18703613,284,"2023-02-24T08:18:37.909Z"
68,0.32052246,0.9137012,0.266416,282,"2023-02-24T08:19:38.471Z"
62,0.3674048,0.92983156,0.09966064,282,"2023-02-24T08:20:39.034Z"
73,0.4899707,0.7345581,0.4343335,279,"2023-02-24T08:21:39.596Z"
62,0.32490236,0.73354495,-0.6119019,278,"2023-02-24T08:22:40.158Z"
63,0.05307373,0.4664868,0.8672363,276,"2023-02-24T08:23:40.721Z"
77,0.30295166,0.57882327,0.42720947,278,"2023-02-24T08:24:41.283Z"
90,-0.5444824,0.7745606,0.28565675,280,"2023-02-24T08:25:41.845Z"
102,0.18654297,0.62113523,-0.7674414,277,"2023-02-24T08:26:42.407Z"
87,-0.9759815,0.5355298,0.014462891,276,"2023-02-24T08:27:42.970Z"
89,-0.9770508,0.5170654,0.03308838,277,"2023-02-24T08:28:43.532Z"
86,-0.86283445,0.4175757,0.07049316,277,"2023-02-24T08:29:44.094Z"
82,-0.93193847,0.48510253,0.09977539,276,"2023-02-24T08:30:44.656Z"
81,-0.9630933,0.5016504,0.07840088,275,"2023-02-24T08:31:45.219Z"
90,-0.9947949,0.516604,0.029052734,274,"2023-02-24T08:32:45.781Z"
90,-0.8788721,0.42999512,0.06256836,272,"2023-02-24T08:33:46.344Z"
88,-0.97213626,0.49569824,0.04930176,271,"2023-02-24T08:34:46.906Z"
86,-0.91936034,0.46097168,0.07751953,270,"2023-02-24T08:35:47.468Z"
85,-1.0085498,0.5460889,0.0628125,269,"2023-02-24T08:36:48.030Z"
87,-0.99296874,0.5115454,0.03062744,269,"2023-02-24T08:37:48.593Z"
96,-0.28947997,0.8738208,0.41258544,268,"2023-02-24T08:38:49.155Z"
95,0.17926514,0.7971216,-0.49846923,267,"2023-02-24T08:39:49.717Z"
96,-0.24070068,0.95743895,-0.47799072,266,"2023-02-24T08:40:50.280Z"
87,0.23800537,0.7237329,-0.69657224,267,"2023-02-24T08:41:50.842Z"
78,-0.6782788,0.6437817,-0.19766113,265,"2023-02-24T08:42:51.404Z"
76,0.6341553,0.70801026,-0.09687012,267,"2023-02-24T08:43:51.966Z"
71,-0.6613745,0.70495117,0.102058105,266,"2023-02-24T08:44:52.529Z"
67,-0.59560305,0.74683106,0.32222655,266,"2023-02-24T08:45:53.091Z"
81,-0.75357175,0.63504636,0.006940918,263,"2023-02-24T08:46:53.653Z"
71,-0.020739745,0.63362306,-0.7299609,263,"2023-02-24T08:47:54.216Z"
75,0.5096362,0.7561352,-0.41401613,264,"2023-02-24T08:48:54.778Z"
77,-0.39828613,0.9074219,0.006611328,264,"2023-02-24T08:49:55.340Z"
76,-0.40656006,0.8124683,-0.37290773,264,"2023-02-24T08:50:55.902Z"
83,-0.71374756,0.5803931,0.33868653,263,"2023-02-24T08:51:56.465Z"
72,-0.16195557,0.83122313,-0.43126953,265,"2023-02-24T08:52:57.027Z"
84,-0.27508545,0.66646975,-0.6905493,264,"2023-02-24T08:53:57.589Z"
79,0.49550048,0.84287596,0.20364013,263,"2023-02-24T08:54:58.152Z"
82,0.8236963,0.3114331,-0.14991699,266,"2023-02-24T08:55:58.714Z"
104,-0.0700708,0.7415161,0.51023436,264,"2023-02-24T08:56:59.276Z"
110,0.091552734,0.9726953,0.48908693,265,"2023-02-24T08:57:59.838Z"
82,0.02894043,0.9323535,0.5645752,265,"2023-02-24T08:59:00.401Z"
59,-0.83497316,0.44475585,-0.2780835,266,"2023-02-24T09:00:00.963Z"
75,0.6254199,0.48669434,-0.47124267,268,"2023-02-24T09:01:01.525Z"
83,-0.3746289,0.78134274,-0.4417285,268,"2023-02-24T09:02:02.087Z"
78,-0.109208986,0.8989917,-0.4549829,268,"2023-02-24T09:03:02.650Z"
77,-0.7778369,0.42096192,-0.4256201,269,"2023-02-24T09:04:03.212Z"
82,-0.7128613,0.65609133,0.13768311,268,"2023-02-24T09:05:03.774Z"
87,-0.4579126,0.8291846,-0.22644287,268,"2023-02-24T09:06:04.337Z"
91,-0.33193114,0.85978514,-0.19207764,269,"2023-02-24T09:07:04.899Z"
77,-0.7494141,0.5205542,0.3128662,270,"2023-02-24T09:08:05.461Z"
92,-0.53573245,0.5711255,0.6829028,271,"2023-02-24T09:09:06.023Z"
86,-0.7643994,0.4306494,-0.056137696,272,"2023-02-24T09:10:06.586Z"
80,-0.111455075,0.893125,-0.4746045,273,"2023-02-24T09:11:07.148Z"
85,0.4538208,0.8234375,0.16909912,275,"2023-02-24T09:12:07.710Z"
102,0.35146728,0.89075685,-0.21680664,277,"2023-02-24T09:13:08.273Z"
105,-0.42307618,0.7227246,0.494021,277,"2023-02-24T09:14:08.835Z"
112,-0.6306787,0.3885498,0.58999026,274,"2023-02-24T09:15:09.397Z"
108,-0.69976807,0.24541748,0.6534058,268,"2023-02-24T09:16:09.959Z"
102,-0.6754492,0.32149413,0.61283934,263,"2023-02-24T09:17:10.522Z"
85,0.13990723,0.76428956,-0.6407373,258,"2023-02-24T09:18:11.084Z"
94,-0.71621823,0.2684253,0.6111914,256,"2023-02-24T09:19:11.646Z"
100,-0.7177783,0.20685303,0.6238916,255,"2023-02-24T09:20:12.209Z"
94,-0.6678101,0.33365723,0.6294141,253,"2023-02-24T09:21:12.771Z"
96,-0.4385913,0.26234862,0.838125,249,"2023-02-24T09:22:13.333Z"
98,-0.64802,0.40392578,0.6033203,251,"2023-02-24T09:23:13.896Z"
112,-0.74861085,0.18638183,0.5880347,249,"2023-02-24T09:24:14.458Z"
112,-0.65090334,0.36490723,0.614187,247,"2023-02-24T09:25:15.020Z"
105,-0.6734595,0.29828614,0.6490552,244,"2023-02-24T09:26:15.583Z"
105,-0.77354246,0.32996094,0.45287108,239,"2023-02-24T09:27:16.145Z"
106,-0.15346436,0.85539794,-0.42190185,240,"2023-02-24T09:28:16.707Z"
82,0.06665527,0.9640015,-0.26034912,246,"2023-02-24T09:29:17.270Z"
63,0.0652832,0.97806394,-0.20652588,250,"2023-02-24T09:30:17.832Z"
67,0.25086182,0.8550244,0.44542968,251,"2023-02-24T09:31:18.394Z"
76,-0.4244507,0.8942383,0.11813232,252,"2023-02-24T09:32:18.956Z"
89,0.18542236,0.6507837,0.55333495,256,"2023-02-24T09:33:19.519Z"
81,-0.107368164,0.8774048,0.18636231,260,"2023-02-24T09:34:20.081Z"
76,0.58914065,0.6761499,0.23458984,264,"2023-02-24T09:35:20.643Z"
67,0.74019533,0.22658448,0.6542017,267,"2023-02-24T09:36:21.206Z"
66,0.5371411,0.8188281,0.13265869,269,"2023-02-24T09:37:21.768Z"
66,-0.01220459,0.9775293,-0.2112207,272,"2023-02-24T09:38:22.330Z"
67,0.061223146,0.93861085,-0.35018066,276,"2023-02-24T09:39:22.892Z"
60,0.70583254,0.1908252,0.6912329,278,"2023-02-24T09:40:23.455Z"
66,0.8118603,0.39397216,0.4157544,279,"2023-02-24T09:41:24.017Z"
80,0.33928955,0.74120116,-0.5909497,285,"2023-02-24T09:42:24.579Z"
55,0.104221195,0.5319653,-0.8504394,289,"2023-02-24T09:43:25.142Z"
52,0.07123535,0.42791748,-0.9104175,295,"2023-02-24T09:44:25.704Z"
50,0.027944336,0.5582471,-0.83678955,301,"2023-02-24T09:45:26.266Z"
65,0.8744409,0.48475587,0.18445557,307,"2023-02-24T09:46:26.828Z"
54,0.03220459,0.9847192,-0.16627197,308,"2023-02-24T09:47:27.391Z"
56,0.03315918,0.98151124,-0.18589355,312,"2023-02-24T09:48:27.953Z"
55,0.038862303,0.95884275,-0.28578126,315,"2023-02-24T09:49:28.515Z"
50,0.03303711,0.94447756,-0.3308325,316,"2023-02-24T09:50:29.077Z"
46,0.03098877,0.96925783,-0.24530274,314,"2023-02-24T09:51:29.640Z"
49,0.009865723,0.9832739,-0.17433594,316,"2023-02-24T09:52:30.202Z"
50,0.023596192,0.916499,-0.40403807,319,"2023-02-24T09:53:30.764Z"
50,0.019541016,0.91902834,-0.39811525,317,"2023-02-24T09:54:31.326Z"
54,-0.17587402,0.9235425,0.31241944,318,"2023-02-24T09:55:31.889Z"
60,0.06287598,0.485354,0.8649878,318,"2023-02-24T09:56:32.436Z"
55,-0.05548828,0.45660156,0.876416,317,"2023-02-24T09:57:32.998Z"
63,-0.06862793,0.34847656,0.9257031,319,"2023-02-24T09:58:33.561Z"
51,0.01321289,0.25835693,0.9599121,315,"2023-02-24T09:59:34.123Z"
58,-0.037001953,0.29213133,0.94760984,322,"2023-02-24T10:00:34.685Z"
63,-0.015871583,0.37585205,0.915896,321,"2023-02-24T10:01:35.247Z"
59,-0.019833984,0.37800294,0.9162939,325,"2023-02-24T10:02:35.810Z"
51,0.05675537,0.3967871,0.91046387,328,"2023-02-24T10:03:36.372Z"
58,0.068740234,0.3162256,0.94055176,328,"2023-02-24T10:04:36.934Z"
63,0.11840332,0.41238037,0.89821535,324,"2023-02-24T10:05:37.496Z"
63,-0.029133301,0.5040259,0.8518481,326,"2023-02-24T10:06:38.059Z"
83,0.03813965,0.46500978,0.8761401,327,"2023-02-24T10:07:38.621Z"
72,0.13330811,0.6470557,0.74471927,327,"2023-02-24T10:08:39.183Z"
70,0.13781983,0.34041503,0.92658204,327,"2023-02-24T10:09:39.745Z"
69,0.0032788087,0.48053712,0.86808836,328,"2023-02-24T10:10:40.308Z"
75,0.022541504,0.47296143,0.8723291,328,"2023-02-24T10:11:40.870Z"
68,0.11599365,0.55938965,0.8111011,328,"2023-02-24T10:12:41.432Z"
59,0.1134082,0.41236573,0.9469995,328,"2023-02-24T10:13:41.994Z"
57,0.026350098,0.47120607,0.87384766,330,"2023-02-24T10:14:42.557Z"
52,0.042492677,0.48382324,0.86670655,332,"2023-02-24T10:15:43.119Z"
72,0.14011963,0.6133545,0.7763745,332,"2023-02-24T10:16:43.681Z"
94,-0.10015137,0.26000732,0.95048094,330,"2023-02-24T10:17:44.243Z"
90,0.6830908,0.5380884,-0.43544677,330,"2023-02-24T10:18:44.805Z"
90,-0.37841308,0.91701174,-0.0012939454,330,"2023-02-24T10:19:45.368Z"
88,-0.9232373,-0.09736084,0.31005126,328,"2023-02-24T10:20:45.930Z"
81,-1.0295606,0.30809325,0.18470703,325,"2023-02-24T10:21:46.492Z"
85,-0.48854735,0.6663623,0.5301123,325,"2023-02-24T10:22:47.054Z"
93,-0.7265674,0.25574708,0.6014063,324,"2023-02-24T10:23:47.617Z"
89,-0.62865967,0.44005615,0.56598145,319,"2023-02-24T10:24:48.179Z"
88,-0.40780273,0.13567139,0.88164794,315,"2023-02-24T10:25:48.741Z"
92,-0.7439746,0.16066651,0.6170337,311,"2023-02-24T10:26:49.303Z"
102,-0.70948243,0.2642749,0.62255615,310,"2023-02-24T10:27:49.866Z"
89,-0.5009961,0.50103027,0.67703366,307,"2023-02-24T10:28:50.428Z"
100,-0.712019,0.30373535,0.58319336,303,"2023-02-24T10:29:50.990Z"
87,-0.41626954,0.24801025,0.8545947,299,"2023-02-24T10:30:51.552Z"
92,-0.8778076,0.44189942,-0.025358887,299,"2023-02-24T10:31:52.115Z"
102,-0.71276367,0.25056154,0.59820557,297,"2023-02-24T10:32:52.677Z"
106,-0.826709,0.03598877,0.5232178,292,"2023-02-24T10:33:53.240Z"
106,-0.7119287,0.31800538,0.55924314,289,"2023-02-24T10:34:53.802Z"
99,-0.46208495,0.7342334,0.3933252,286,"2023-02-24T10:35:54.364Z"
104,-0.7133887,0.30002442,0.5880298,285,"2023-02-24T10:36:54.926Z"
94,-0.94586915,0.2431714,-0.14539307,283,"2023-02-24T10:37:55.489Z"
88,-0.6276782,0.3485376,0.6056372,281,"2023-02-24T10:38:56.051Z"
103,-0.7939038,0.31843263,0.47715577,279,"2023-02-24T10:39:56.613Z"
96,-0.43229735,0.4607959,0.6202905,278,"2023-02-24T10:40:57.176Z"
97,0.29322267,0.80494875,-0.5209155,280,"2023-02-24T10:41:57.738Z"
98,0.30142334,0.61416507,0.72812986,284,"2023-02-24T10:42:58.300Z"
83,0.3277002,0.7813379,-0.5495899,290,"2023-02-24T10:43:58.862Z"
70,-0.23965088,0.84278077,0.20236084,292,"2023-02-24T10:44:59.425Z"
60,0.40936035,0.7863745,-0.5449023,293,"2023-02-24T10:45:59.987Z"
85,-0.5033179,0.8253125,-0.059763182,293,"2023-02-24T10:47:00.549Z"
78,-0.48380616,0.647146,0.52517337,295,"2023-02-24T10:48:01.111Z"
89,-0.83051515,0.10428467,0.5880078,297,"2023-02-24T10:49:01.674Z"
94,-0.5515918,0.55183107,0.59263915,292,"2023-02-24T10:50:02.236Z"
93,-0.05651123,0.8098438,-0.52275145,288,"2023-02-24T10:51:02.798Z"
82,-0.79914063,0.52156496,-0.5308838,289,"2023-02-24T10:52:03.361Z"
85,-0.99492186,0.37035155,0.08871338,294,"2023-02-24T10:53:03.923Z"
87,-0.07953858,0.4380371,0.8620264,295,"2023-02-24T10:54:04.485Z"
68,-0.09149414,0.53393066,0.8276367,299,"2023-02-24T10:55:05.047Z"
48,-0.09536865,0.5569946,0.8127856,300,"2023-02-24T10:56:05.610Z"
52,-0.019484863,0.5068066,0.85162354,300,"2023-02-24T10:57:06.172Z"
50,-0.06206787,0.8157788,0.4153955,299,"2023-02-24T10:58:06.734Z"
73,-0.11052002,0.9801074,0.1258252,302,"2023-02-24T10:59:07.296Z"
52,-0.1292627,0.6370239,0.74585694,307,"2023-02-24T11:00:07.859Z"
50,-0.100351565,0.522583,0.83437747,308,"2023-02-24T11:01:08.421Z"
53,-0.13544922,0.65531737,0.7299707,312,"2023-02-24T11:02:08.983Z"
57,-0.11671875,0.6209204,0.7581494,317,"2023-02-24T11:03:09.545Z"
56,-0.11330322,0.59138674,0.78286624,319,"2023-02-24T11:04:10.108Z"
64,-0.12008545,0.29556397,0.9379346,320,"2023-02-24T11:05:10.670Z"
65,0.034104005,0.4309082,0.894375,326,"2023-02-24T11:06:11.217Z"
51,0.13466065,0.38485596,0.9095728,330,"2023-02-24T11:07:11.780Z"
50,0.019504394,0.49888185,0.8570312,332,"2023-02-24T11:08:12.342Z"
72,-0.042399902,0.69242185,0.6949732,334,"2023-02-24T11:09:12.904Z"
65,0.060983885,0.48130128,0.86763185,336,"2023-02-24T11:10:13.466Z"
54,0.08785156,0.46355712,0.87606204,337,"2023-02-24T11:11:14.029Z"
53,0.053461913,0.5510498,0.8257129,338,"2023-02-24T11:12:14.591Z"
53,0.053811036,0.45284668,0.88358396,339,"2023-02-24T11:13:15.153Z"
51,0.07984863,0.4957739,0.8570898,340,"2023-02-24T11:14:15.715Z"
63,0.030231934,0.50173587,0.8566455,341,"2023-02-24T11:15:16.277Z"
56,0.04730713,0.43959716,0.88754636,341,"2023-02-24T11:16:16.840Z"
56,0.7407715,0.40438232,0.42987305,342,"2023-02-24T11:17:17.402Z"
77,0.05322998,0.9082837,0.40060058,340,"2023-02-24T11:18:17.949Z"
75,0.039714355,0.46704346,0.87490237,341,"2023-02-24T11:19:18.512Z"
50,-0.002434082,0.43089843,0.8945019,343,"2023-02-24T11:20:19.074Z"
57,0.024606934,0.46438476,0.8778784,343,"2023-02-24T11:21:19.636Z"
54,0.0021289063,0.4818457,0.9083838,343,"2023-02-24T11:22:20.183Z"
68,0.0040356447,0.92134035,0.37310058,341,"2023-02-24T11:23:20.746Z"
65,0.07640869,0.96072024,0.18605225,340,"2023-02-24T11:24:21.308Z"
49,-0.018183595,0.48654053,0.8639771,343,"2023-02-24T11:25:21.870Z"
50,-0.010895996,0.5663452,0.8146411,345,"2023-02-24T11:26:22.432Z"
57,-0.022221679,0.47665283,0.87058103,345,"2023-02-24T11:27:22.995Z"
49,0.005668945,0.45122313,0.8818066,344,"2023-02-24T11:28:23.557Z"
55,0.016958008,0.444834,0.8885596,344,"2023-02-24T11:29:24.119Z"
55,-0.007241211,0.90830564,0.40419433,343,"2023-02-24T11:30:24.681Z"
59,0.034731444,0.4489502,0.8889575,343,"2023-02-24T11:31:25.243Z"
73,-0.0012890626,0.56150144,0.8172461,345,"2023-02-24T11:32:25.806Z"
60,0.20867676,0.92098147,0.29786378,345,"2023-02-24T11:33:26.368Z"
69,0.36167237,0.5616235,0.74496824,345,"2023-02-24T11:34:26.930Z"
59,0.050241698,0.44883788,0.889873,345,"2023-02-24T11:35:27.492Z"
57,0.021518555,0.48276612,0.8679126,345,"2023-02-24T11:36:28.055Z"
54,0.06993164,0.79295653,0.5954492,345,"2023-02-24T11:37:28.617Z"
57,0.07817383,0.728186,0.6701416,345,"2023-02-24T11:38:29.179Z"
65,0.016120605,0.54576415,0.82927,345,"2023-02-24T11:39:29.741Z"
63,0.037490234,0.47465333,0.8738013,345,"2023-02-24T11:40:30.303Z"
59,-0.0006762695,0.54185057,0.83140135,344,"2023-02-24T11:41:30.866Z"
56,0.22902344,0.96719724,0.12113281,344,"2023-02-24T11:42:31.428Z"
59,0.047658693,0.38145506,0.91754884,344,"2023-02-24T11:43:31.990Z"
62,0.02168457,0.5106348,0.8513745,344,"2023-02-24T11:44:32.552Z"
55,0.007348633,0.49194825,0.86381835,343,"2023-02-24T11:45:33.115Z"
54,0.013547364,0.4878833,0.8621436,343,"2023-02-24T11:46:33.677Z"
56,0.021643067,0.5285669,0.841687,343,"2023-02-24T11:47:34.239Z"
57,-0.0031030274,0.49938965,0.85809326,343,"2023-02-24T11:48:34.801Z"
64,0.05223633,0.5178174,0.8646118,343,"2023-02-24T11:49:35.364Z"
62,-0.0025366212,0.5126367,0.8459766,344,"2023-02-24T11:50:35.926Z"
63,-0.003676758,0.53599364,0.87741697,344,"2023-02-24T11:51:36.488Z"
65,0.012866211,0.5405078,0.8292432,344,"2023-02-24T11:52:37.050Z"
55,0.03854004,0.53821534,0.83437747,344,"2023-02-24T11:53:37.613Z"
54,0.022312012,0.52490723,0.8436084,344,"2023-02-24T11:54:38.174Z"
57,-0.005756836,0.55800784,0.820459,344,"2023-02-24T11:55:38.737Z"
62,0.014755859,0.5365796,0.8376636,343,"2023-02-24T11:56:39.299Z"
57,0.024365235,0.54239255,0.8328174,343,"2023-02-24T11:57:39.861Z"
58,0.011699218,0.5241162,0.84300536,343,"2023-02-24T11:58:40.424Z"
58,0.012202148,0.5527685,0.8258252,342,"2023-02-24T11:59:40.986Z"
52,0.010986328,0.48767823,0.8664014,343,"2023-02-24T12:00:41.548Z"
51,0.011513672,0.4635913,0.8787622,342,"2023-02-24T12:01:42.110Z"
55,-0.0053344727,0.500083,0.859165,342,"2023-02-24T12:02:42.672Z"
62,1.0188892,0.048618164,0.03569336,342,"2023-02-24T12:03:43.235Z"
61,0.9643457,0.059091795,0.3336206,341,"2023-02-24T12:04:43.796Z"
72,0.1305127,0.52854,0.8150586,341,"2023-02-24T12:05:44.359Z"
47,0.5502661,0.67660403,-0.5122974,340,"2023-02-24T12:06:44.921Z"
53,0.010354004,0.47255126,0.87364745,339,"2023-02-24T12:07:45.484Z"
56,0.009755859,0.45558837,0.88330567,339,"2023-02-24T12:08:46.046Z"
58,0.81477785,-0.43467042,0.3999585,339,"2023-02-24T12:09:46.608Z"
54,0.49931154,0.8032788,-0.3540674,339,"2023-02-24T12:10:47.170Z"
57,0.013474121,0.35825196,0.92811525,338,"2023-02-24T12:11:47.732Z"
56,0.55338866,-0.6490772,0.5156299,338,"2023-02-24T12:12:48.295Z"
59,0.017434083,0.46894777,0.8735254,338,"2023-02-24T12:13:48.857Z"
60,0.02489502,0.47353515,0.87293214,338,"2023-02-24T12:14:49.418Z"
63,0.55688965,0.7719971,0.3294287,337,"2023-02-24T12:15:49.981Z"
62,-0.05236084,0.972041,0.18680908,335,"2023-02-24T12:16:50.544Z"
51,0.22844483,0.93895507,0.26155517,336,"2023-02-24T12:17:51.106Z"
59,0.030402832,0.3828711,0.910686,336,"2023-02-24T12:18:51.668Z"
55,0.33544677,0.8208545,0.46777344,336,"2023-02-24T12:19:52.230Z"
59,0.8278247,0.28747314,0.5241748,336,"2023-02-24T12:20:52.792Z"
67,0.1329712,0.91588867,0.27503908,336,"2023-02-24T12:21:53.355Z"
50,0.011445313,0.5810327,0.80468994,336,"2023-02-24T12:22:53.917Z"
66,0.006657715,0.6075586,0.78458494,336,"2023-02-24T12:23:54.479Z"
71,0.27765626,0.8890625,-0.39966553,335,"2023-02-24T12:24:55.041Z"
86,-0.39342773,0.6454419,0.46524414,335,"2023-02-24T12:25:55.604Z"
95,-0.48263916,0.73461425,0.2692627,334,"2023-02-24T12:26:56.166Z"
79,-0.39447266,0.75388914,-0.48243654,332,"2023-02-24T12:27:56.728Z"
85,-0.5676367,0.7547095,-0.18711914,328,"2023-02-24T12:28:57.291Z"
96,-0.81212157,0.41059083,0.4200415,327,"2023-02-24T12:29:57.853Z"
105,-0.70239747,0.22480224,0.65918946,323,"2023-02-24T12:30:58.415Z"
113,-0.70643556,0.1810669,0.66098386,318,"2023-02-24T12:31:58.977Z"
95,-0.9054419,0.35314453,0.10846435,313,"2023-02-24T12:32:59.540Z"
87,-0.6704126,0.5044287,0.69584227,308,"2023-02-24T12:34:00.102Z"
104,-0.19769287,0.85331786,0.4102295,299,"2023-02-24T12:35:00.664Z"
98,-0.006838379,0.92770267,-0.35431397,300,"2023-02-24T12:36:01.226Z"
89,-0.3734033,0.8068579,0.2903076,303,"2023-02-24T12:37:01.789Z"
96,-0.52306885,0.7154639,-0.36523438,303,"2023-02-24T12:38:02.351Z"
89,-0.49246827,0.8909033,-0.04845703,305,"2023-02-24T12:39:02.913Z"
92,0.16678955,0.9613403,0.16309083,306,"2023-02-24T12:40:03.475Z"
83,-0.8137573,0.5195166,-0.0035864257,308,"2023-02-24T12:41:04.038Z"
80,-0.63288087,0.73072267,0.16539794,307,"2023-02-24T12:42:04.600Z"
70,0.1632788,0.8318921,-0.13474122,310,"2023-02-24T12:43:05.162Z"
84,-0.5590259,0.7670776,-0.07990234,309,"2023-02-24T12:44:05.724Z"
76,-1.0052905,0.11045654,0.18905517,307,"2023-02-24T12:45:06.287Z"
89,0.8524927,0.027243651,-0.2819165,300,"2023-02-24T12:46:06.849Z"
98,-0.8599707,0.44553223,-0.31602538,300,"2023-02-24T12:47:07.411Z"
91,-0.6090967,0.7146484,-0.27922606,297,"2023-02-24T12:48:07.973Z"
84,0.28506592,0.6353711,-0.7395801,296,"2023-02-24T12:49:08.536Z"
73,-0.93089354,0.23174804,-0.30351076,294,"2023-02-24T12:50:09.098Z"
61,0.12572022,0.62426513,-0.78254396,294,"2023-02-24T12:51:09.660Z"
83,-0.8452246,0.40782714,-0.3436963,292,"2023-02-24T12:52:10.223Z"
76,0.93607175,-0.059570312,-0.4106323,294,"2023-02-24T12:53:10.770Z"
99,-0.56813234,0.67540526,-0.32667723,296,"2023-02-24T12:54:11.332Z"
72,0.028432617,0.77137697,-0.64925784,297,"2023-02-24T12:55:11.894Z"
75,0.97391844,0.20930175,-0.1563037,298,"2023-02-24T12:56:12.457Z"
83,0.10617676,0.8295972,-0.5545654,296,"2023-02-24T12:57:13.019Z"
62,0.066105954,0.8716992,-0.49278808,294,"2023-02-24T12:58:13.581Z"
80,0.95737547,0.11745849,-0.13001709,295,"2023-02-24T12:59:14.143Z"
84,-0.10150391,0.6412427,-0.5392676,297,"2023-02-24T13:00:14.706Z"
73,-0.9090283,0.3679419,-0.063493654,294,"2023-02-24T13:01:15.268Z"
91,0.58770996,-0.5040747,-0.5214282,294,"2023-02-24T13:02:15.830Z"
86,-0.9051245,0.37007082,0.06368164,295,"2023-02-24T13:03:16.393Z"
62,-0.16912597,0.97808105,-0.11174805,296,"2023-02-24T13:04:16.955Z"
79,0.967334,0.14147949,-0.020622559,294,"2023-02-24T13:05:17.517Z"
82,0.54924804,-0.28067383,0.78438234,293,"2023-02-24T13:06:18.079Z"
57,0.15603027,0.83103514,-0.5475049,294,"2023-02-24T13:07:18.642Z"
73,0.9807568,0.22449951,-0.103276365,293,"2023-02-24T13:08:19.204Z"
83,-0.007182617,0.7834619,-0.62893796,292,"2023-02-24T13:09:19.766Z"
70,-0.925874,0.3773462,-0.0045385743,292,"2023-02-24T13:10:20.328Z"
79,1.0819165,0.06670898,0.0354541,294,"2023-02-24T13:11:20.891Z"
72,-0.9095093,0.36817628,0.03157959,296,"2023-02-24T13:12:21.453Z"
65,-0.90782714,0.36582765,0.0072387694,297,"2023-02-24T13:13:22.015Z"
81,0.9507544,0.22975098,-0.15418945,296,"2023-02-24T13:14:22.563Z"
73,-0.88837403,0.41631103,0.03986572,296,"2023-02-24T13:15:23.125Z"
64,-0.9071411,0.368833,0.060390625,295,"2023-02-24T13:16:23.687Z"
80,1.0659839,0.09376953,0.043029785,295,"2023-02-24T13:17:24.249Z"
79,-0.90245116,0.3824463,0.043293457,297,"2023-02-24T13:18:24.812Z"
67,-0.119787596,0.8955884,-0.42860594,298,"2023-02-24T13:19:25.374Z"
81,1.0201294,0.08524902,-0.0011425781,295,"2023-02-24T13:20:25.936Z"
89,0.87764895,0.24123047,0.3160498,294,"2023-02-24T13:21:26.499Z"
67,-0.8626758,0.4685376,-0.043015137,295,"2023-02-24T13:22:27.061Z"
77,-0.741438,0.64562744,-0.026079101,294,"2023-02-24T13:23:27.623Z"
84,-0.72808105,0.62614745,0.2506128,293,"2023-02-24T13:24:28.185Z"
89,-0.8885229,0.35843262,-0.0964331,291,"2023-02-24T13:25:28.748Z"
95,-0.94637454,0.24075195,0.061357424,290,"2023-02-24T13:26:29.310Z"
96,-0.9546948,0.054682616,0.20141846,289,"2023-02-24T13:27:29.872Z"
86,-0.9387256,0.24796143,-0.1876416,288,"2023-02-24T13:28:30.434Z"
94,-0.24894287,0.65649414,-0.71470946,285,"2023-02-24T13:29:30.997Z"
104,0.75195557,0.54713625,-0.3621875,285,"2023-02-24T13:30:31.559Z"
114,-0.23364502,0.9054175,0.31645995,284,"2023-02-24T13:31:32.121Z"
78,-0.05187012,0.8313013,-0.5575635,289,"2023-02-24T13:32:32.683Z"
81,-0.62236816,-0.16342041,-0.80933106,288,"2023-02-24T13:33:33.246Z"
108,-0.2877661,0.78728515,-0.30496338,286,"2023-02-24T13:34:33.808Z"
117,0.7614477,0.6105664,-0.29826903,286,"2023-02-24T13:35:34.370Z"
110,-0.30239746,0.8477612,-0.42803466,287,"2023-02-24T13:36:34.933Z"
72,-0.34078613,0.86357176,-0.35923827,287,"2023-02-24T13:37:35.495Z"
97,-0.054543458,0.59156495,-0.80893064,286,"2023-02-24T13:38:36.057Z"
103,-0.5612305,0.51238525,0.22003174,288,"2023-02-24T13:39:36.619Z"
83,0.6755322,0.7717383,-0.14634521,287,"2023-02-24T13:40:37.182Z"
105,-1.0503076,0.5498486,-0.015505371,289,"2023-02-24T13:41:37.729Z"
102,-0.60918945,0.6804077,-0.10324219,286,"2023-02-24T13:42:38.291Z"
101,-0.3134253,0.6343506,-0.6479199,285,"2023-02-24T13:43:38.854Z"
106,-0.76600343,0.45868897,-0.35355225,291,"2023-02-24T13:44:39.416Z"
96,-0.7301172,0.6301611,-0.082319334,320,"2023-02-24T13:45:39.978Z"
111,-0.18593994,0.5945996,-0.09363525,324,"2023-02-24T13:46:40.540Z"
111,-0.7651367,0.60607666,-0.01411377,320,"2023-02-24T13:47:41.103Z"
106,-0.70685303,0.4151416,0.50725096,314,"2023-02-24T13:48:41.665Z"
111,0.7320801,0.6755493,0.10192627,307,"2023-02-24T13:49:42.227Z"
103,0.041975096,0.65798587,0.56271,304,"2023-02-24T13:50:42.789Z"
102,-0.82473874,0.49673095,-0.03633545,300,"2023-02-24T13:51:43.352Z"
96,-0.11469483,0.9282715,0.10583496,296,"2023-02-24T13:52:43.914Z"
106,0.39916748,0.7677637,0.34348145,289,"2023-02-24T13:53:44.476Z"
109,-0.9029004,0.2700635,0.32990968,291,"2023-02-24T13:54:45.039Z"
112,-0.3876245,0.4386719,0.7640991,288,"2023-02-24T13:55:45.601Z"
105,-0.6950342,0.28480956,0.6141699,285,"2023-02-24T13:56:46.163Z"
85,-0.87286866,0.108842775,0.44526613,282,"2023-02-24T13:57:46.725Z"
105,-0.6126343,0.46354493,0.60183835,276,"2023-02-24T13:58:47.288Z"
102,-0.56937987,0.8011133,-0.08611084,276,"2023-02-24T13:59:47.850Z"
96,-0.108562015,0.93218017,-0.17796876,271,"2023-02-24T14:00:48.412Z"
93,-0.19840088,0.9098901,0.17020507,274,"2023-02-24T14:01:48.975Z"
104,-0.8805005,0.43848878,0.18652588,276,"2023-02-24T14:02:49.537Z"
96,-0.34833252,0.9603125,0.04771973,276,"2023-02-24T14:03:50.099Z"
92,-0.77227783,0.60145754,-0.10947754,276,"2023-02-24T14:04:50.661Z"
96,0.11499268,0.5372608,-0.85167724,282,"2023-02-24T14:05:51.224Z"
86,-0.7660718,0.6758106,0.09894287,282,"2023-02-24T14:06:51.786Z"
107,-0.013222656,0.8154687,0.24682617,283,"2023-02-24T14:07:52.348Z"
110,-0.8618799,0.4755835,-0.20229249,281,"2023-02-24T14:08:52.911Z"
85,-0.17074463,0.883042,-0.36680177,280,"2023-02-24T14:09:53.473Z"
94,-0.031074218,0.47729248,0.85070556,278,"2023-02-24T14:10:54.035Z"
98,-0.1993628,0.6602026,0.7026074,276,"2023-02-24T14:11:54.597Z"
99,-0.5214258,0.61058104,0.40442628,284,"2023-02-24T14:12:55.160Z"
93,0.03952881,0.97637695,-0.23541749,281,"2023-02-24T14:13:55.722Z"
107,-0.4709302,0.11196045,0.77004886,286,"2023-02-24T14:14:56.284Z"
106,-0.1596753,0.60311526,0.76752687,285,"2023-02-24T14:15:56.847Z"
94,0.53241456,0.76087403,-0.024538575,286,"2023-02-24T14:16:57.409Z"
95,0.41082275,0.7558838,0.46375978,287,"2023-02-24T14:17:57.971Z"
76,0.30642822,0.92826414,0.21126953,287,"2023-02-24T14:18:58.533Z"
72,0.5162207,0.8654541,0.13127442,289,"2023-02-24T14:19:59.096Z"
73,0.25668702,0.72249025,0.6345923,288,"2023-02-24T14:20:59.658Z"
84,0.3569824,0.8268091,0.44303223,290,"2023-02-24T14:22:00.220Z"
78,-0.34868896,0.7860254,0.5140405,291,"2023-02-24T14:23:00.782Z"
73,0.29766113,0.88407713,0.32618165,290,"2023-02-24T14:24:01.345Z"
81,0.22184326,0.94916993,0.09452393,290,"2023-02-24T14:25:01.907Z"
74,0.10437256,0.9601538,-0.26850343,290,"2023-02-24T14:26:02.469Z"
83,0.31274658,0.8309741,0.38337404,290,"2023-02-24T14:27:03.032Z"
79,0.14732178,0.76712644,0.5349976,291,"2023-02-24T14:28:03.594Z"
80,0.21726075,0.6903613,0.67270994,285,"2023-02-24T14:29:04.156Z"
84,-0.5643017,0.81353515,-0.14331788,291,"2023-02-24T14:30:04.719Z"
82,-0.3109546,0.71632326,0.58022463,290,"2023-02-24T14:31:05.281Z"
84,0.1937085,0.94479007,0.061035156,287,"2023-02-24T14:32:05.843Z"
79,-0.053115234,0.6702344,0.65418214,291,"2023-02-24T14:33:06.405Z"
84,-0.09664307,0.9042407,0.16394776,290,"2023-02-24T14:34:06.968Z"
94,-0.8710864,0.24991699,-0.44755614,287,"2023-02-24T14:35:07.530Z"
88,-0.29628417,0.9288013,0.056066893,286,"2023-02-24T14:36:08.092Z"
90,-0.74381346,0.5817749,0.2491748,290,"2023-02-24T14:37:08.655Z"
93,0.28357178,0.49698243,0.7540063,289,"2023-02-24T14:38:09.217Z"
91,-0.47126952,0.85233396,0.13813232,290,"2023-02-24T14:39:09.779Z"
92,-0.25520995,0.8543262,0.35664794,290,"2023-02-24T14:40:10.341Z"
89,-0.23525879,0.8381128,-0.4955615,287,"2023-02-24T14:41:10.904Z"
92,0.41585448,0.799458,-0.15641846,290,"2023-02-24T14:42:11.466Z"
89,-0.5009961,0.9508545,-0.172937,290,"2023-02-24T14:43:12.028Z"
99,-0.5296484,0.7542798,-0.3460327,287,"2023-02-24T14:44:12.591Z"
87,-0.59198976,0.43639404,-0.6461694,284,"2023-02-24T14:45:13.153Z"
91,-0.13875,0.81786376,0.23875,286,"2023-02-24T14:46:13.715Z"
101,-0.91932374,0.29606932,-0.25200438,284,"2023-02-24T14:47:14.277Z"
97,0.43930176,0.54540527,0.52670896,288,"2023-02-24T14:48:14.840Z"
97,-0.12792724,0.88049316,-0.32576415,290,"2023-02-24T14:49:15.402Z"
95,-0.65770996,0.70361817,-0.14349121,288,"2023-02-24T14:50:15.964Z"
94,-0.35979003,0.2072168,-0.92588866,288,"2023-02-24T14:51:16.526Z"
95,-0.55634034,0.40878418,0.69124025,291,"2023-02-24T14:52:17.089Z"
113,-0.6965649,0.3392627,0.59610593,289,"2023-02-24T14:53:17.651Z"
108,-0.7118457,0.19404541,0.62664795,286,"2023-02-24T14:54:18.198Z"
95,-0.56450194,0.2548413,0.7555371,284,"2023-02-24T14:55:18.761Z"
73,-0.7008008,0.35327148,0.6152539,284,"2023-02-24T14:56:19.323Z"
111,-0.6988623,0.23549317,0.6474414,283,"2023-02-24T14:57:19.885Z"
106,-0.93268555,0.37309083,0.034245607,281,"2023-02-24T14:58:20.433Z"
93,-0.7175659,0.34930664,-0.5917993,278,"2023-02-24T14:59:20.995Z"
82,-0.88831055,0.357854,0.19286376,279,"2023-02-24T15:00:21.557Z"
69,-0.2341333,0.9350879,-0.15494873,280,"2023-02-24T15:01:22.120Z"
76,0.5151465,0.8431494,0.08062012,278,"2023-02-24T15:02:22.682Z"
53,0.23574218,0.97413576,-0.027995605,279,"2023-02-24T15:03:23.244Z"
73,0.46115723,0.86424804,0.18400879,279,"2023-02-24T15:04:23.806Z"
72,0.30934325,0.9389526,0.15848632,278,"2023-02-24T15:05:24.369Z"
73,0.2251416,0.68708986,0.6834302,281,"2023-02-24T15:06:24.931Z"
73,0.24902344,0.95347655,-0.19953126,280,"2023-02-24T15:07:25.493Z"
70,0.72716063,0.705625,-0.028925782,281,"2023-02-24T15:08:26.056Z"
68,0.2521167,0.6896069,0.6749951,281,"2023-02-24T15:09:26.618Z"
63,0.6221216,0.5854956,-0.56261474,276,"2023-02-24T15:10:27.180Z"
66,0.17556885,0.95342773,0.2725342,277,"2023-02-24T15:11:27.742Z"
66,0.20533691,0.9353369,-0.31004393,275,"2023-02-24T15:12:28.305Z"
74,0.09556396,0.7776758,0.57754153,276,"2023-02-24T15:13:28.867Z"
73,0.029355468,0.5275073,0.83777344,276,"2023-02-24T15:14:29.429Z"
58,-0.073505856,0.9297461,0.38673097,273,"2023-02-24T15:15:29.992Z"
54,0.11977539,0.6075903,0.77504885,273,"2023-02-24T15:16:30.554Z"
59,0.119846195,0.5459912,0.8197632,272,"2023-02-24T15:17:31.116Z"
56,0.088107914,0.587605,0.7944971,271,"2023-02-24T15:18:31.678Z"
57,0.11659912,0.60586184,0.77908933,268,"2023-02-24T15:19:32.241Z"
61,0.11827393,0.5875757,0.79636717,268,"2023-02-24T15:20:32.803Z"
60,0.11469483,0.5795776,0.79960936,267,"2023-02-24T15:21:33.365Z"
58,0.22421631,0.9469092,0.23013183,269,"2023-02-24T15:22:33.928Z"
64,0.13092285,0.60519046,0.7785034,268,"2023-02-24T15:23:34.490Z"
52,0.07716553,0.59488034,0.79045165,269,"2023-02-24T15:24:35.052Z"
61,0.44275635,0.48201904,0.7295752,269,"2023-02-24T15:25:35.615Z"
79,0.16594239,0.55295897,-0.83854,268,"2023-02-24T15:26:36.177Z"
93,-1.0508057,0.40254638,0.0714624,272,"2023-02-24T15:27:36.739Z"
94,-0.91512454,0.35099122,0.02465088,274,"2023-02-24T15:28:37.301Z"
78,-0.8163281,0.469541,-0.05375488,277,"2023-02-24T15:29:37.864Z"
89,-0.98496336,0.2714795,0.06927978,279,"2023-02-24T15:30:38.426Z"
83,-0.8727881,0.27987304,0.24547364,278,"2023-02-24T15:31:38.988Z"
77,0.48888183,0.82814944,0.2766626,274,"2023-02-24T15:32:39.551Z"
76,-0.36416993,0.84543455,-0.4413208,276,"2023-02-24T15:33:40.113Z"
78,-0.94683105,0.34441406,0.16535889,274,"2023-02-24T15:34:40.675Z"
70,-0.90802735,0.36667725,0.29276124,275,"2023-02-24T15:35:41.237Z"
81,-0.9027808,0.41338378,0.1820874,276,"2023-02-24T15:36:41.800Z"
85,-0.9814404,0.026154784,0.25085938,275,"2023-02-24T15:37:42.362Z"
59,-0.9120898,0.3480298,0.072790526,274,"2023-02-24T15:38:42.924Z"
68,-0.89031494,0.42412597,-0.025439452,274,"2023-02-24T15:39:43.487Z"
77,0.05297119,0.8907202,-0.52591795,272,"2023-02-24T15:40:44.049Z"
72,-0.663938,0.6883057,-0.0962207,271,"2023-02-24T15:41:44.611Z"
78,-0.42320555,0.74968505,-0.40297607,273,"2023-02-24T15:42:45.173Z"
77,-0.7182544,0.6728003,0.030725097,273,"2023-02-24T15:43:45.736Z"
70,0.20671631,0.4264697,-0.89411867,274,"2023-02-24T15:44:46.298Z"
67,-0.22652344,0.8529248,0.5163452,276,"2023-02-24T15:45:46.860Z"
61,-0.1932666,0.7744458,-0.60089356,278,"2023-02-24T15:46:47.422Z"
63,0.24697754,0.8722241,-0.4287793,280,"2023-02-24T15:47:47.985Z"
56,-0.054851074,0.89211184,-0.005214844,279,"2023-02-24T15:48:48.547Z"
53,0.16008301,0.94831544,-0.29023924,275,"2023-02-24T15:49:49.109Z"
55,0.12554932,0.89793456,-0.43375,269,"2023-02-24T15:50:49.672Z"
70,0.2578125,0.97029054,0.045063477,270,"2023-02-24T15:51:50.234Z"
71,-0.4532837,0.7326929,-0.49741212,269,"2023-02-24T15:52:50.796Z"
63,-0.07448974,0.72617185,0.671294,273,"2023-02-24T15:53:51.358Z"
63,0.19534668,0.58666503,-0.7973877,273,"2023-02-24T15:54:51.921Z"
65,0.40965575,0.8757739,0.27424318,273,"2023-02-24T15:55:52.483Z"
69,-0.6801343,0.6088647,0.24152344,272,"2023-02-24T15:56:53.045Z"
73,-0.39899415,0.9146826,-0.084387206,270,"2023-02-24T15:57:53.608Z"
71,0.2988916,0.858606,0.31625,273,"2023-02-24T15:58:54.170Z"
72,0.47489014,0.86283445,-0.13175292,275,"2023-02-24T15:59:54.732Z"
62,-0.2913159,0.91572267,-0.262063,276,"2023-02-24T16:00:55.294Z"
70,-0.115583494,0.9455664,-0.3021289,278,"2023-02-24T16:01:55.857Z"
58,-0.2532666,0.8793213,-0.39604005,281,"2023-02-24T16:02:56.419Z"
58,-0.09968994,0.87099123,-0.48312256,281,"2023-02-24T16:03:56.981Z"
55,-0.37554443,0.7354614,0.53572756,280,"2023-02-24T16:04:57.543Z"
57,0.20845947,0.8614014,-0.4750757,278,"2023-02-24T16:05:58.106Z"
54,0.10580322,0.9036645,-0.42572266,279,"2023-02-24T16:06:58.668Z"
69,-0.078615725,0.9923267,-0.033002928,281,"2023-02-24T16:07:59.230Z"
74,-0.6507178,0.64550537,0.046086427,281,"2023-02-24T16:08:59.793Z"
72,-0.7498877,0.54330325,0.38980713,282,"2023-02-24T16:10:00.355Z"
77,-0.8119678,0.5525098,0.009951171,282,"2023-02-24T16:11:00.917Z"
77,0.3601538,0.5977124,-0.73359865,283,"2023-02-24T16:12:01.479Z"
81,-0.3310498,0.5935742,-0.6981421,283,"2023-02-24T16:13:02.042Z"
74,0.40798584,0.7337671,0.18891357,284,"2023-02-24T16:14:02.604Z"
67,0.6184546,0.74524903,0.30834472,286,"2023-02-24T16:15:03.166Z"
78,-0.702417,0.5040454,0.39716554,289,"2023-02-24T16:16:03.729Z"
79,-0.56300294,0.63753176,0.4146411,291,"2023-02-24T16:17:04.291Z"
61,-0.31287843,0.84026855,0.41327637,291,"2023-02-24T16:18:04.853Z"
76,-0.26629883,0.5588599,-0.68771726,291,"2023-02-24T16:19:05.415Z"
77,-0.4872705,0.7394043,0.32649413,291,"2023-02-24T16:20:05.978Z"
82,-0.21325928,0.8430371,0.47532472,291,"2023-02-24T16:21:06.540Z"
103,-0.15373291,0.7503613,0.6242041,292,"2023-02-24T16:22:07.102Z"
116,-0.46926513,0.8557739,0.16123779,291,"2023-02-24T16:23:07.664Z"
120,-0.2973242,0.94675046,0.048745118,291,"2023-02-24T16:24:08.227Z"
117,-0.4429834,0.86898196,0.114990234,288,"2023-02-24T16:25:08.788Z"
85,-0.3477173,0.9127954,0.22330078,287,"2023-02-24T16:26:09.351Z"
89,-0.37160888,0.81349367,0.422583,284,"2023-02-24T16:27:09.914Z"
90,-0.43871582,0.7701538,0.41921386,283,"2023-02-24T16:28:10.476Z"
89,-0.35880372,0.920293,-0.038303223,283,"2023-02-24T16:29:11.038Z"
80,-0.3598828,0.91726804,0.13466309,284,"2023-02-24T16:30:11.600Z"
75,0.23297608,0.83946776,0.46484375,283,"2023-02-24T16:31:12.163Z"
72,-0.6373779,0.31599122,0.65700686,281,"2023-02-24T16:32:12.725Z"
72,0.00626709,0.77815676,0.5902026,279,"2023-02-24T16:33:13.287Z"
79,-0.8030249,0.62353516,-0.07355224,278,"2023-02-24T16:34:13.849Z"
78,0.74651366,-0.15059571,0.67354494,278,"2023-02-24T16:35:14.412Z"
70,0.15380615,0.63068604,0.7629492,275,"2023-02-24T16:36:14.974Z"
69,-0.19827148,0.7341992,0.6281738,274,"2023-02-24T16:37:15.536Z"
60,-0.19776124,0.7465332,0.6147754,276,"2023-02-24T16:38:16.099Z"
64,-0.1915918,0.7465161,0.61718506,279,"2023-02-24T16:39:16.661Z"
52,-0.22761475,0.66065675,0.6959082,284,"2023-02-24T16:40:17.223Z"
49,-0.23412842,0.6342285,0.71677244,290,"2023-02-24T16:41:17.785Z"
67,-0.27652833,0.6937866,0.6418726,297,"2023-02-24T16:42:18.348Z"
55,-0.22756591,0.689834,0.66666013,296,"2023-02-24T16:43:18.910Z"
63,-0.2302954,0.6569629,0.69313234,299,"2023-02-24T16:44:19.472Z"
63,-0.2710498,0.6035425,0.72791016,299,"2023-02-24T16:45:20.034Z"
66,0.051105957,0.7081958,0.69316894,303,"2023-02-24T16:46:20.597Z"
58,0.058266602,0.7552686,0.6419678,303,"2023-02-24T16:47:21.159Z"
49,0.0515625,0.7001294,0.70238525,301,"2023-02-24T16:48:21.721Z"
52,0.05046875,0.6421411,0.75110596,303,"2023-02-24T16:49:22.283Z"
53,0.09816895,0.6586328,0.73966306,304,"2023-02-24T16:50:22.846Z"
46,0.1120166,0.7724219,0.61710936,306,"2023-02-24T16:51:23.408Z"
54,0.09218506,0.7482129,0.64788574,305,"2023-02-24T16:52:23.970Z"
63,0.028718261,0.6436377,0.7476001,305,"2023-02-24T16:53:24.532Z"
67,0.025476074,0.67936766,0.723208,309,"2023-02-24T16:54:25.095Z"
57,0.017631836,0.7500806,0.64925295,311,"2023-02-24T16:55:25.657Z"
69,0.01666748,0.644082,0.7553174,309,"2023-02-24T16:56:26.219Z"
67,0.038024902,0.71941894,0.6830689,309,"2023-02-24T16:57:26.781Z"
63,-0.05158447,0.6132251,0.77378905,309,"2023-02-24T16:58:27.344Z"
73,-0.1107373,0.556123,0.80917966,308,"2023-02-24T16:59:27.906Z"
63,-0.306604,0.6122681,0.7077539,309,"2023-02-24T17:00:28.468Z"
74,-0.27153808,0.6202954,0.7148731,308,"2023-02-24T17:01:29.031Z"
60,-0.31062743,0.60883546,0.7005371,310,"2023-02-24T17:02:29.593Z"
60,-0.24391846,0.6004126,0.7396802,310,"2023-02-24T17:03:30.155Z"
50,-0.2191211,0.59510744,0.7555371,307,"2023-02-24T17:04:30.717Z"
58,-0.44644287,0.8473706,-0.24889404,310,"2023-02-24T17:05:31.280Z"
77,0.032492675,0.7253247,-0.5910351,308,"2023-02-24T17:06:31.842Z"
92,0.28147948,0.90171874,-0.2678882,312,"2023-02-24T17:07:32.404Z"
84,-0.86625975,0.4514209,-0.08841797,313,"2023-02-24T17:08:32.966Z"
81,0.10818604,0.71254885,0.6861255,311,"2023-02-24T17:09:33.529Z"
57,0.11661377,0.88505125,0.44357422,310,"2023-02-24T17:10:34.091Z"
59,-0.7193579,0.44696534,0.45364013,311,"2023-02-24T17:11:34.653Z"
71,-0.55568117,0.6858594,-0.3077124,313,"2023-02-24T17:12:35.215Z"
57,0.3549365,0.92777586,0.14987549,314,"2023-02-24T17:13:35.778Z"
52,0.23618165,0.96497804,0.012355957,314,"2023-02-24T17:14:36.340Z"
69,0.3980127,0.9209131,-0.069138184,314,"2023-02-24T17:15:36.902Z"
52,0.24434327,1.0003881,-0.10771973,314,"2023-02-24T17:16:37.464Z"
70,0.53633547,0.8332275,-0.19998291,314,"2023-02-24T17:17:38.027Z"
54,0.05624512,0.93272215,-0.33473876,312,"2023-02-24T17:18:38.589Z"
65,0.307312,0.8356787,-0.4748999,313,"2023-02-24T17:19:39.151Z"
56,0.36644042,0.9016333,0.25168702,313,"2023-02-24T17:20:39.713Z"
51,0.27379882,0.87720215,-0.40519288,314,"2023-02-24T17:21:40.276Z"
56,0.35254395,0.7416968,-0.5843579,312,"2023-02-24T17:22:40.838Z"
55,0.49129394,0.708833,-0.52795166,312,"2023-02-24T17:23:41.400Z"
53,0.4397339,0.681709,-0.6035693,312,"2023-02-24T17:24:41.962Z"
57,0.4396289,0.86510986,0.2574878,313,"2023-02-24T17:25:42.524Z"
56,0.22208008,0.5654248,-0.8039551,313,"2023-02-24T17:26:43.087Z"
56,0.24545899,0.5529248,-0.80076414,313,"2023-02-24T17:27:43.649Z"
53,0.1259668,0.44631103,-0.8970215,314,"2023-02-24T17:28:44.211Z"
57,-0.48109376,0.6925635,0.47890624,314,"2023-02-24T17:29:44.773Z"
59,-0.9222339,0.26972902,-0.2129419,312,"2023-02-24T17:30:45.336Z"
50,-0.8245605,0.05261963,-0.538645,312,"2023-02-24T17:31:45.898Z"
51,-0.8702466,0.4518994,0.01692627,312,"2023-02-24T17:32:46.460Z"
55,-0.52903074,0.7669116,-0.3379077,310,"2023-02-24T17:33:47.022Z"
69,-0.8994702,0.39194825,-0.099106446,309,"2023-02-24T17:34:47.585Z"
68,-0.32125488,0.87112546,0.21358399,309,"2023-02-24T17:35:48.147Z"
77,-0.22876465,0.7023584,0.6558032,308,"2023-02-24T17:36:48.709Z"
67,-0.6916333,0.56335694,-0.37064943,308,"2023-02-24T17:37:49.271Z"
79,-0.14715332,0.9882666,0.10286133,308,"2023-02-24T17:38:49.834Z"
81,-0.004387207,0.7924536,-0.6453662,307,"2023-02-24T17:39:50.396Z"
73,0.37602052,0.78190184,-0.5173706,306,"2023-02-24T17:40:50.958Z"
56,0.42585936,0.8430469,-0.3512207,306,"2023-02-24T17:41:51.521Z"
63,-0.73343015,0.5557568,-0.35623536,306,"2023-02-24T17:42:52.083Z"
76,-0.25836182,0.95003664,-0.07252441,307,"2023-02-24T17:43:52.645Z"
76,-0.8179321,0.4032422,0.16823487,305,"2023-02-24T17:44:53.207Z"
68,-0.03754883,0.84528077,-0.39638916,306,"2023-02-24T17:45:53.770Z"
57,0.35490236,0.57036376,-0.7528491,304,"2023-02-24T17:46:54.332Z"
55,-0.7119263,0.6750147,-0.14049073,306,"2023-02-24T17:47:54.894Z"
71,-0.26832762,0.90077883,0.3126831,302,"2023-02-24T17:48:55.456Z"
81,-0.17783447,0.9405249,0.22646484,302,"2023-02-24T17:49:56.019Z"
79,-0.27725586,0.96142334,-0.044562988,300,"2023-02-24T17:50:56.581Z"
84,-0.18489014,0.907854,0.33853516,299,"2023-02-24T17:51:57.143Z"
82,-0.1871875,0.9285425,0.26734865,297,"2023-02-24T17:52:57.705Z"
84,-0.3039331,0.91430664,0.18256591,295,"2023-02-24T17:53:58.268Z"
88,-0.14389892,0.91904783,0.34869874,293,"2023-02-24T17:54:58.830Z"
94,-0.3236499,0.92472655,0.121557616,293,"2023-02-24T17:55:59.392Z"
92,-0.31516603,0.9370654,0.13569824,291,"2023-02-24T17:56:59.954Z"
89,-0.3068164,0.9195703,0.12092285,290,"2023-02-24T17:58:00.517Z"
98,-0.30021486,0.8797583,0.31482422,289,"2023-02-24T17:59:01.079Z"
96,-0.31637207,0.8889111,0.21945068,289,"2023-02-24T18:00:01.641Z"
101,-0.34602782,0.88245606,0.29042235,289,"2023-02-24T18:01:02.203Z"
90,-0.29231444,0.94733644,-0.0023632813,289,"2023-02-24T18:02:02.766Z"
78,-0.33934325,0.88291746,0.30218506,288,"2023-02-24T18:03:03.328Z"
77,-0.4846411,0.861604,-0.091289066,287,"2023-02-24T18:04:03.890Z"
70,-0.21698974,0.91796875,0.27070314,287,"2023-02-24T18:05:04.452Z"
83,-0.32541993,0.69859374,0.60921633,287,"2023-02-24T18:06:05.015Z"
76,-0.38657227,0.8820117,0.19507325,288,"2023-02-24T18:07:05.577Z"
78,-0.70567137,0.666272,-0.085415035,288,"2023-02-24T18:08:06.139Z"
71,-0.31816894,0.8656006,0.3213745,287,"2023-02-24T18:09:06.701Z"
72,-0.23560059,0.9023144,0.2022583,286,"2023-02-24T18:10:07.264Z"
86,-0.15885986,0.8701489,0.46217772,285,"2023-02-24T18:11:07.826Z"
90,-0.21311036,0.91868407,0.2856421,285,"2023-02-24T18:12:08.388Z"
77,-0.3411499,0.8942334,0.23744874,285,"2023-02-24T18:13:08.951Z"
73,-0.32527587,0.92881835,0.13374512,286,"2023-02-24T18:14:09.513Z"
72,-0.4328833,0.84789795,0.26184082,285,"2023-02-24T18:15:10.075Z"
70,-0.1861084,0.9652759,0.11209717,286,"2023-02-24T18:16:10.637Z"
76,-0.12243652,0.91195315,-0.08006592,286,"2023-02-24T18:17:11.200Z"
76,-0.26673585,0.9397266,0.15258056,286,"2023-02-24T18:18:11.762Z"
73,-0.4238623,0.87276125,0.13530761,286,"2023-02-24T18:19:12.324Z"
73,-0.37858155,0.901438,0.10117432,285,"2023-02-24T18:20:12.886Z"
77,-0.029401856,0.7704541,-0.54526854,284,"2023-02-24T18:21:13.449Z"
84,-0.47394532,0.57,0.65958005,286,"2023-02-24T18:22:14.011Z"
86,0.39451903,0.72910887,-0.5800659,288,"2023-02-24T18:23:14.573Z"
92,0.98618406,-0.06934814,-0.014682617,289,"2023-02-24T18:24:15.135Z"
105,-0.50155276,0.8666626,0.03175049,288,"2023-02-24T18:25:15.698Z"
94,-0.3015454,0.95591795,0.089035645,292,"2023-02-24T18:26:16.260Z"
101,-0.94040525,0.35291505,0.14599854,289,"2023-02-24T18:27:16.823Z"
110,0.38304442,0.6167309,0.25275147,282,"2023-02-24T18:28:17.385Z"
105,-0.8354102,0.5447046,0.14953613,282,"2023-02-24T18:29:17.947Z"
93,-0.75085205,0.55672854,0.23905273,280,"2023-02-24T18:30:18.509Z"
107,-0.75613767,0.57520753,0.07726074,289,"2023-02-24T18:31:19.072Z"
102,-0.7153125,0.5927417,0.35055175,292,"2023-02-24T18:32:19.634Z"
88,0.39452392,0.9187207,0.12114746,291,"2023-02-24T18:33:20.196Z"
53,0.48385742,0.8774365,0.095585935,293,"2023-02-24T18:34:20.758Z"
65,-0.29776123,0.70503175,-0.40418702,289,"2023-02-24T18:35:21.321Z"
77,0.12920654,0.89317626,-0.428125,286,"2023-02-24T18:36:21.883Z"
61,0.90563965,-0.10348144,0.46093994,283,"2023-02-24T18:37:22.445Z"
59,-1.0837647,0.03781738,-0.06041748,288,"2023-02-24T18:38:23.007Z"
61,-0.55366945,0.7845557,0.0027758789,285,"2023-02-24T18:39:23.570Z"
71,-0.87543213,0.45093262,-0.03222168,281,"2023-02-24T18:40:24.132Z"
46,-0.23758546,0.96434325,0.021577148,280,"2023-02-24T18:41:24.694Z"
57,-0.28394043,0.93746585,0.1465918,277,"2023-02-24T18:42:25.257Z"
63,-0.06489014,0.8768921,0.4522754,276,"2023-02-24T18:43:25.819Z"
71,-0.71971923,0.65491945,0.0832959,278,"2023-02-24T18:44:26.366Z"
71,0.043845214,0.82012695,-0.5706567,281,"2023-02-24T18:45:26.928Z"
78,-0.70762694,-0.05198486,-0.7334009,283,"2023-02-24T18:46:27.491Z"
75,-0.31213868,0.8537842,-0.46477294,284,"2023-02-24T18:47:28.053Z"
80,-0.22028808,0.66402346,-0.6120581,285,"2023-02-24T18:48:28.601Z"
65,-0.8014404,0.54382324,-0.19582276,286,"2023-02-24T18:49:29.163Z"
70,0.08022705,0.9282959,-0.30666748,287,"2023-02-24T18:50:29.725Z"
66,0.11137207,0.9806055,-0.06234619,287,"2023-02-24T18:51:30.287Z"
51,-0.3578662,0.8236743,0.40801513,285,"2023-02-24T18:52:30.850Z"
63,-0.47713134,0.638501,-0.050429687,286,"2023-02-24T18:53:31.412Z"
52,-0.3527246,0.85060793,0.35668212,283,"2023-02-24T18:54:31.974Z"
53,-0.20940429,0.88484377,0.38957518,284,"2023-02-24T18:55:32.536Z"
53,-0.52091306,0.8003809,0.16383056,283,"2023-02-24T18:56:33.099Z"
55,-0.6403198,0.49110353,0.6347876,287,"2023-02-24T18:57:33.661Z"
69,0.61373293,0.79793704,0.00018554687,290,"2023-02-24T18:58:34.223Z"
55,-0.49588868,-0.0030859376,0.8464917,290,"2023-02-24T18:59:34.786Z"
68,0.15283936,0.49663574,0.8298389,292,"2023-02-24T19:00:35.348Z"
54,0.71662354,0.67974365,-0.2265088,293,"2023-02-24T19:01:35.910Z"
64,0.7794483,0.46668947,-0.4599707,295,"2023-02-24T19:02:36.472Z"
72,0.25385743,0.8863037,-0.40006348,295,"2023-02-24T19:03:37.035Z"
59,0.3716211,0.8058276,-0.47920898,297,"2023-02-24T19:04:37.597Z"
55,0.2292163,0.78790283,-0.5800659,297,"2023-02-24T19:05:38.159Z"
58,-0.49172118,0.737417,0.4272119,296,"2023-02-24T19:06:38.721Z"
57,-0.29579103,0.9120557,0.21923584,297,"2023-02-24T19:07:39.284Z"
48,0.0498584,0.9945093,0.057397462,298,"2023-02-24T19:08:39.846Z"
65,-0.20339112,0.8421655,0.47665772,299,"2023-02-24T19:09:40.408Z"
74,-0.15002686,0.9039746,0.2671704,301,"2023-02-24T19:10:40.970Z"
61,-0.34043944,0.08314941,0.78052247,301,"2023-02-24T19:11:41.533Z"
73,0.0432666,0.97352296,0.2069751,301,"2023-02-24T19:12:42.095Z"
68,-0.41136473,0.046777345,0.7807324,301,"2023-02-24T19:13:42.657Z"
75,-0.87869626,0.47940674,-0.05925049,302,"2023-02-24T19:14:43.219Z"
63,-0.35507813,0.65483886,0.60885257,303,"2023-02-24T19:15:43.782Z"
76,-0.37892577,0.85772705,0.31284913,302,"2023-02-24T19:16:44.343Z"
80,0.033151854,0.9224951,0.33921388,305,"2023-02-24T19:17:44.906Z"
92,-0.46211424,0.04217041,0.76117676,307,"2023-02-24T19:18:45.469Z"
80,0.13900635,0.9584473,0.23986083,310,"2023-02-24T19:19:46.031Z"
46,0.14447998,0.9551465,0.25225586,310,"2023-02-24T19:20:46.593Z"
65,-0.14063233,0.8828003,0.45382568,308,"2023-02-24T19:21:47.155Z"
57,-0.20557861,0.89746827,-0.32571045,310,"2023-02-24T19:22:47.718Z"
61,-0.15411621,0.9854663,0.1564795,309,"2023-02-24T19:23:48.280Z"
67,-0.10098389,0.6709668,0.7322022,309,"2023-02-24T19:24:48.842Z"
77,-0.85774416,0.44473633,0.10807129,310,"2023-02-24T19:25:49.404Z"
71,-0.030732421,0.9935327,0.023518067,309,"2023-02-24T19:26:49.967Z"
58,-0.35811767,0.40062988,0.8251343,307,"2023-02-24T19:27:50.529Z"
60,-0.0767041,0.21493164,0.9605664,308,"2023-02-24T19:28:51.091Z"
66,0.05751465,0.97200197,0.4232666,309,"2023-02-24T19:29:51.653Z"
75,-0.26627442,0.82608885,0.45042723,306,"2023-02-24T19:30:52.216Z"
83,0.15246093,0.22395264,0.9569849,311,"2023-02-24T19:31:52.778Z"
87,-0.85813963,0.44464356,-0.050146483,312,"2023-02-24T19:32:53.340Z"
86,-0.015866699,0.4443506,0.8782007,312,"2023-02-24T19:33:53.902Z"
91,-0.17580079,0.8735156,0.44668457,314,"2023-02-24T19:34:54.465Z"
90,-0.079833984,0.8745972,0.4592578,313,"2023-02-24T19:35:55.027Z"
65,-0.32544923,0.7656152,0.47198486,313,"2023-02-24T19:36:55.588Z"
70,-0.25657958,0.6651172,0.68337893,314,"2023-02-24T19:37:56.151Z"
88,-0.07619385,0.88506347,-0.1503003,316,"2023-02-24T19:38:56.713Z"
83,-0.7301977,0.6702173,-0.0004321289,317,"2023-02-24T19:39:57.276Z"
69,0.36975098,0.85843015,-0.31004152,317,"2023-02-24T19:40:57.838Z"
72,-0.33883056,0.70358884,-0.6204248,317,"2023-02-24T19:41:58.400Z"
69,0.08077881,0.97384524,-0.07868164,316,"2023-02-24T19:42:58.962Z"
62,0.20434815,0.678418,0.711167,317,"2023-02-24T19:43:59.525Z"
67,-0.57062256,0.81035644,-0.07234375,317,"2023-02-24T19:45:00.087Z"
66,0.29256102,0.87676024,-0.045529786,317,"2023-02-24T19:46:00.649Z"
64,0.6171973,0.7447314,0.25437257,318,"2023-02-24T19:47:01.211Z"
72,0.46598876,0.89196044,0.03866455,317,"2023-02-24T19:48:01.774Z"
63,0.38281983,0.9268213,-0.09857178,317,"2023-02-24T19:49:02.336Z"
59,0.38802245,0.92569333,-0.044331055,316,"2023-02-24T19:50:02.898Z"
61,-0.69679934,0.6927759,0.14016357,316,"2023-02-24T19:51:03.460Z"
52,0.3711499,0.9294385,-0.105407715,315,"2023-02-24T19:52:04.023Z"
60,0.344021,0.94286865,-0.065693356,315,"2023-02-24T19:53:04.585Z"
59,0.49057373,0.8285059,-0.2544043,314,"2023-02-24T19:54:05.147Z"
62,0.48762453,0.86449707,0.14229736,311,"2023-02-24T19:55:05.709Z"
59,0.35433593,0.91526854,-0.006833496,309,"2023-02-24T19:56:06.272Z"
57,0.2928833,0.91053224,0.29466552,308,"2023-02-24T19:57:06.834Z"
60,0.50947756,0.8548218,0.07473145,307,"2023-02-24T19:58:07.396Z"
68,0.34595948,0.8637964,-0.41527832,308,"2023-02-24T19:59:07.958Z"
73,-0.13744384,0.72131836,-0.5893945,308,"2023-02-24T20:00:08.521Z"
77,0.38666505,0.8709668,-0.09321289,306,"2023-02-24T20:01:09.083Z"
60,0.12667724,0.7945312,0.5872339,305,"2023-02-24T20:02:09.645Z"
57,0.7706836,0.6252832,-0.21441162,304,"2023-02-24T20:03:10.207Z"
47,0.73694825,0.62809324,-0.30664307,308,"2023-02-24T20:04:10.770Z"
47,0.632168,0.7578394,0.21699952,309,"2023-02-24T20:05:11.332Z"
59,0.28349364,0.7391748,0.61073244,310,"2023-02-24T20:06:11.894Z"
51,0.20149659,0.768938,0.60545164,309,"2023-02-24T20:07:12.456Z"
56,0.16608642,0.783728,0.5938892,309,"2023-02-24T20:08:13.019Z"
57,0.062937014,0.8664917,-0.40064943,311,"2023-02-24T20:09:13.581Z"
50,-0.33259034,0.24906738,0.892937,312,"2023-02-24T20:10:14.143Z"
53,-0.37365723,0.5285938,0.7400244,315,"2023-02-24T20:11:14.705Z"
45,-0.35405028,0.66739744,0.62972903,316,"2023-02-24T20:12:15.267Z"
47,-0.3448462,0.64315915,0.66074216,317,"2023-02-24T20:13:15.830Z"
45,-0.37047118,0.5442236,0.73033446,320,"2023-02-24T20:14:16.392Z"
40,-0.42624268,0.5434717,0.6999902,323,"2023-02-24T20:15:16.954Z"
44,-0.42450684,0.5287012,0.71391845,326,"2023-02-24T20:16:17.517Z"
43,-0.41152343,0.58656985,0.6745752,328,"2023-02-24T20:17:18.079Z"
48,-0.25595215,0.55374265,0.77525634,330,"2023-02-24T20:18:18.641Z"
47,-0.38157958,0.42165282,0.8032837,331,"2023-02-24T20:19:19.203Z"
55,-0.4110254,0.52723634,0.7217627,331,"2023-02-24T20:20:19.766Z"
42,-0.391001,0.6604053,0.6164722,332,"2023-02-24T20:21:20.328Z"
49,0.16629882,-0.45372313,0.8842261,332,"2023-02-24T20:22:20.890Z"
52,-0.374104,0.13273437,0.90365964,333,"2023-02-24T20:23:21.452Z"
40,-0.3138843,0.5163208,0.7837549,334,"2023-02-24T20:24:22.014Z"
49,0.29287353,0.5301465,0.3766919,335,"2023-02-24T20:25:22.577Z"
57,0.30956542,0.6611255,0.68577147,334,"2023-02-24T20:26:23.139Z"
52,-0.3773364,0.59123534,0.6910425,334,"2023-02-24T20:27:23.701Z"
38,-0.13702881,0.83713865,0.5118945,334,"2023-02-24T20:28:24.263Z"
40,-0.048828125,0.79173094,0.5947607,334,"2023-02-24T20:29:24.826Z"
44,-0.11742676,0.90179443,0.39536622,334,"2023-02-24T20:30:25.388Z"
46,-0.29155517,0.83540285,0.3254175,333,"2023-02-24T20:31:25.950Z"
61,-0.2344043,0.93081546,-0.2699243,332,"2023-02-24T20:32:26.512Z"
52,-0.4466162,0.67735106,0.62730956,331,"2023-02-24T20:33:27.074Z"
44,-0.44809815,0.45162597,0.7490503,332,"2023-02-24T20:34:27.637Z"
38,-0.36739013,0.675625,0.61463135,333,"2023-02-24T20:35:28.199Z"
47,-0.72433835,0.66017824,-0.13287109,333,"2023-02-24T20:36:28.761Z"
54,0.029020997,0.9507544,0.23635986,334,"2023-02-24T20:37:29.323Z"
57,0.03654541,0.99253416,0.0418042,333,"2023-02-24T20:38:29.886Z"
62,-0.4437451,0.5494556,0.676897,331,"2023-02-24T20:39:30.448Z"
53,-0.5017529,0.8288745,-0.20128661,330,"2023-02-24T20:40:31.010Z"
53,-0.47723877,0.4079785,0.75404054,329,"2023-02-24T20:41:31.573Z"
59,-0.089777835,0.7451709,0.6475781,329,"2023-02-24T20:42:32.135Z"
40,-0.10522461,0.5369873,0.82910645,329,"2023-02-24T20:43:32.697Z"
45,-0.47947997,0.42539552,0.7439404,329,"2023-02-24T20:44:33.259Z"
45,-0.47803956,0.43433595,0.74040526,330,"2023-02-24T20:45:33.821Z"
45,-0.10135498,0.90934324,0.3927783,331,"2023-02-24T20:46:34.383Z"
51,-0.7718799,-0.22208008,0.5666016,330,"2023-02-24T20:47:34.946Z"
64,-0.902041,0.3044287,0.0134375,329,"2023-02-24T20:48:35.508Z"
60,-0.66575193,0.7039966,-0.17745118,328,"2023-02-24T20:49:36.070Z"
68,0.398125,0.92326415,0.015,326,"2023-02-24T20:50:36.633Z"
49,0.24260254,0.541648,-0.81568605,322,"2023-02-24T20:51:37.195Z"
45,-0.2704883,0.9553784,0.13866943,325,"2023-02-24T20:52:37.757Z"
38,-0.26807374,0.934563,0.18748046,322,"2023-02-24T20:53:38.319Z"
45,-0.25685546,0.93312013,0.21175294,320,"2023-02-24T20:54:38.882Z"
38,-0.24431884,0.93583494,0.21374023,318,"2023-02-24T20:55:39.444Z"
36,-0.23980469,0.9401514,0.20050538,319,"2023-02-24T20:56:40.005Z"
36,-0.20383301,0.9510596,0.19351563,319,"2023-02-24T20:57:40.568Z"
36,-0.20571288,0.95136964,0.19098389,319,"2023-02-24T20:58:41.130Z"
37,-0.20859863,0.950354,0.19095702,319,"2023-02-24T20:59:41.693Z"
63,0.6364258,0.7904541,-0.031345215,319,"2023-02-24T21:00:42.255Z"
59,0.78823245,0.59635496,-0.19558838,319,"2023-02-24T21:01:42.817Z"
42,0.09404541,0.9734814,-0.21185058,319,"2023-02-24T21:02:43.379Z"
70,0.5019629,0.85549074,-0.20150635,320,"2023-02-24T21:03:43.942Z"
73,0.88115233,0.38609618,0.29276857,319,"2023-02-24T21:04:44.504Z"
77,-0.74772704,0.59817624,-0.23416749,317,"2023-02-24T21:05:45.066Z"
45,-0.8786011,0.42611083,0.08656738,316,"2023-02-24T21:06:45.628Z"
45,-0.9032715,0.37949464,0.045996092,314,"2023-02-24T21:07:46.191Z"
58,-0.21673828,0.32290527,0.90752685,309,"2023-02-24T21:08:46.753Z"
38,-0.2653418,0.24788818,0.91889894,305,"2023-02-24T21:09:47.315Z"
42,-0.20276368,0.5210132,0.81406736,310,"2023-02-24T21:10:47.877Z"
49,0.6816211,0.71175295,0.22402832,305,"2023-02-24T21:11:48.440Z"
71,0.7914722,0.6185156,0.07097656,308,"2023-02-24T21:12:49.002Z"
66,-0.5634912,0.80542237,-0.08867188,308,"2023-02-24T21:13:49.564Z"
71,-0.9489038,0.101818845,0.21750489,307,"2023-02-24T21:14:50.126Z"
73,-0.86651856,0.43990722,-0.012019043,307,"2023-02-24T21:15:50.689Z"
70,-0.51086915,0.6072412,-0.6286011,305,"2023-02-24T21:16:51.251Z"
74,0.13624512,0.9200366,0.18811524,304,"2023-02-24T21:17:51.813Z"
82,-0.3388501,0.74578613,0.5452026,304,"2023-02-24T21:18:52.375Z"
81,-0.3904175,0.91419435,-0.024658203,303,"2023-02-24T21:19:52.938Z"
72,-0.7680225,0.48338866,0.2383667,303,"2023-02-24T21:20:53.500Z"
55,0.36197266,0.65117186,-0.6828174,302,"2023-02-24T21:21:54.062Z"
45,0.35968995,0.643147,-0.69164795,300,"2023-02-24T21:22:54.625Z"
47,0.35768068,0.6736279,-0.66315675,300,"2023-02-24T21:23:55.187Z"
43,0.22746582,0.75678957,-0.6259351,299,"2023-02-24T21:24:55.749Z"
43,0.34980956,0.648396,-0.69249266,299,"2023-02-24T21:25:56.311Z"
53,0.31336427,0.65961426,-0.69769776,298,"2023-02-24T21:26:56.874Z"
50,0.2345752,0.67084473,-0.71606934,297,"2023-02-24T21:27:57.436Z"
45,0.28049317,0.6022632,-0.7606909,297,"2023-02-24T21:28:57.998Z"
48,0.20527343,0.30905762,-0.93903077,296,"2023-02-24T21:29:58.560Z"
67,-0.74542725,0.71104246,0.24296631,295,"2023-02-24T21:30:59.123Z"
71,0.120983884,0.82355714,0.5439868,295,"2023-02-24T21:31:59.685Z"
65,-0.7608374,0.60741943,0.047385253,295,"2023-02-24T21:33:00.247Z"
57,0.052297365,0.9772876,0.007043457,295,"2023-02-24T21:34:00.809Z"
71,0.22471191,0.55794924,-0.8141382,294,"2023-02-24T21:35:01.372Z"
68,-0.28011474,0.96556395,-0.002463379,292,"2023-02-24T21:36:01.934Z"
77,0.76565915,0.6572949,-0.10253418,293,"2023-02-24T21:37:02.496Z"
93,0.16250488,0.9825195,-0.012131347,292,"2023-02-24T21:38:03.058Z"
87,-0.6440161,0.5928149,0.3941919,294,"2023-02-24T21:39:03.621Z"
82,0.26406494,0.961416,-0.042539064,295,"2023-02-24T21:40:04.183Z"
87,-0.63335204,0.7145459,0.1820874,294,"2023-02-24T21:41:04.745Z"
89,-0.22928955,0.9094336,0.33065674,294,"2023-02-24T21:42:05.308Z"
82,0.6275659,0.42571533,0.52580076,293,"2023-02-24T21:43:05.870Z"
71,0.3095581,0.8468091,0.21668456,292,"2023-02-24T21:44:06.432Z"
66,0.5281787,0.3595093,-0.78924316,292,"2023-02-24T21:45:06.994Z"
87,-0.48526123,0.48383301,-0.7243213,295,"2023-02-24T21:46:07.556Z"
71,0.5550122,0.43042237,-0.7324951,292,"2023-02-24T21:47:08.119Z"
44,0.5664697,0.44863036,-0.7124707,292,"2023-02-24T21:48:08.681Z"
44,0.61769533,0.51940185,-0.6144116,292,"2023-02-24T21:49:09.243Z"
48,0.593584,0.4791455,-0.6694214,290,"2023-02-24T21:50:09.806Z"
46,0.592605,0.50912595,-0.6334888,289,"2023-02-24T21:51:10.368Z"
47,0.586604,0.7064038,-0.42576173,288,"2023-02-24T21:52:10.930Z"
47,0.5894287,0.72137696,-0.3957202,287,"2023-02-24T21:53:11.492Z"
47,0.7240356,0.40013915,-0.5913355,286,"2023-02-24T21:54:12.055Z"
50,0.5948633,0.7915894,-0.1891748,282,"2023-02-24T21:55:12.617Z"
63,0.5987207,0.21379639,-0.5072217,284,"2023-02-24T21:56:13.179Z"
43,0.097351074,-0.9981836,-0.16273437,281,"2023-02-24T21:57:13.741Z"
41,0.08666992,-1.0033106,-0.13402587,282,"2023-02-24T21:58:14.304Z"
40,0.08654297,-1.0034766,-0.13544922,280,"2023-02-24T21:59:14.866Z"
40,0.08623047,-1.003086,-0.13625976,280,"2023-02-24T22:00:15.428Z"
41,0.08652832,-1.0033057,-0.13585937,282,"2023-02-24T22:01:15.991Z"
41,0.08519531,-1.0025488,-0.13635987,286,"2023-02-24T22:02:16.553Z"
38,0.085446775,-1.0031836,-0.13642578,290,"2023-02-24T22:03:17.115Z"
39,0.08618164,-1.0034131,-0.13616943,294,"2023-02-24T22:04:17.677Z"
38,0.08570313,-1.0035424,-0.1356958,297,"2023-02-24T22:05:18.240Z"
43,0.06619385,-1.0114819,-0.057592772,299,"2023-02-24T22:06:18.802Z"
36,0.06720703,-1.012102,-0.057924803,301,"2023-02-24T22:07:19.364Z"
39,0.066843264,-1.0113404,-0.057495117,302,"2023-02-24T22:08:19.927Z"
39,0.06766357,-1.0118238,-0.057109375,303,"2023-02-24T22:09:20.489Z"
38,0.06771484,-1.0113672,-0.057023928,305,"2023-02-24T22:10:21.051Z"
38,0.06767334,-1.011538,-0.056918945,307,"2023-02-24T22:11:21.613Z"
39,0.06711182,-1.0118604,-0.05479248,308,"2023-02-24T22:12:22.176Z"
39,0.066811524,-1.0113306,-0.05540039,310,"2023-02-24T22:13:22.738Z"
39,0.06767334,-1.0114502,-0.053903807,312,"2023-02-24T22:14:23.300Z"
39,0.067272946,-1.0113842,-0.054450683,313,"2023-02-24T22:15:23.862Z"
40,0.06677246,-1.0115186,-0.05486572,315,"2023-02-24T22:16:24.425Z"
43,0.0665918,-1.0115429,-0.055185545,317,"2023-02-24T22:17:24.986Z"
39,0.0669458,-1.0114746,-0.054367676,318,"2023-02-24T22:18:25.549Z"
38,0.067368165,-1.011958,-0.055461425,320,"2023-02-24T22:19:26.111Z"
41,0.06783691,-1.0113598,-0.054536134,321,"2023-02-24T22:20:26.674Z"
38,0.06722168,-1.0120605,-0.055478517,322,"2023-02-24T22:21:27.236Z"
40,0.067707516,-1.0110595,-0.054501954,324,"2023-02-24T22:22:27.798Z"
40,0.06705322,-1.011438,-0.05517578,324,"2023-02-24T22:23:28.360Z"
41,0.06756104,-1.011167,-0.055202637,326,"2023-02-24T22:24:28.923Z"
40,0.067368165,-1.0117749,-0.05546631,327,"2023-02-24T22:25:29.485Z"
41,0.06711182,-1.011626,-0.055063475,328,"2023-02-24T22:26:30.047Z"
40,0.06689209,-1.0115454,-0.056674805,329,"2023-02-24T22:27:30.609Z"
39,0.067092285,-1.0116943,-0.055354003,330,"2023-02-24T22:28:31.171Z"
40,0.06747559,-1.011831,-0.055107422,331,"2023-02-24T22:29:31.742Z"
40,0.06755127,-1.0118823,-0.05565674,332,"2023-02-24T22:30:32.309Z"
41,0.06720215,-1.0112745,-0.055249024,333,"2023-02-24T22:31:32.871Z"
39,0.06735596,-1.0113672,-0.056157228,334,"2023-02-24T22:32:33.433Z"
45,0.066149905,-1.0111548,-0.062089846,334,"2023-02-24T22:33:33.995Z"
39,0.06645996,-1.0110425,-0.062016603,335,"2023-02-24T22:34:34.558Z"
45,0.066684574,-1.0113477,-0.062145997,336,"2023-02-24T22:35:35.120Z"
41,0.06626465,-1.0108398,-0.062080078,336,"2023-02-24T22:36:35.682Z"
39,0.06613281,-1.0110523,-0.06275391,337,"2023-02-24T22:37:36.244Z"
40,0.06635498,-1.0110352,-0.06247803,337,"2023-02-24T22:38:36.806Z"
47,0.06629395,-1.0110523,-0.06282715,338,"2023-02-24T22:39:37.369Z"
40,0.065693356,-1.0111303,-0.061584473,338,"2023-02-24T22:40:37.931Z"
42,0.06665039,-1.0111499,-0.061982423,339,"2023-02-24T22:41:38.493Z"
47,0.06672852,-1.0113183,-0.06297851,339,"2023-02-24T22:42:39.055Z"
44,0.06641113,-1.0112426,-0.062226564,339,"2023-02-24T22:43:39.618Z"
45,0.066127926,-1.0114087,-0.06298096,340,"2023-02-24T22:44:40.180Z"
44,0.06593506,-1.0109497,-0.062800296,340,"2023-02-24T22:45:40.742Z"
45,0.066137694,-1.0114746,-0.06256836,340,"2023-02-24T22:46:41.304Z"
43,0.06608643,-1.01146,-0.06283936,341,"2023-02-24T22:47:41.866Z"
46,0.066965334,-1.0111841,-0.06281738,341,"2023-02-24T22:48:42.429Z"
50,0.06645019,-1.0113525,-0.0630542,341,"2023-02-24T22:49:43.003Z"
52,0.06636963,-1.0109229,-0.062207032,342,"2023-02-24T22:50:43.566Z"
49,0.06688476,-1.0114673,-0.062941894,342,"2023-02-24T22:51:44.128Z"
49,0.06689209,-1.0111524,-0.063637696,342,"2023-02-24T22:52:44.690Z"
47,0.066970214,-1.0121484,-0.049953613,343,"2023-02-24T22:53:45.252Z"
44,0.066149905,-1.0114844,-0.05623535,343,"2023-02-24T22:54:45.814Z"
45,0.06701416,-1.011333,-0.05664551,343,"2023-02-24T22:55:46.377Z"
57,0.6775122,-0.20596436,0.72946286,342,"2023-02-24T22:56:46.939Z"
44,0.68134034,-0.13844238,0.7400122,343,"2023-02-24T22:57:47.501Z"
42,0.8114526,-0.18905517,0.58842283,344,"2023-02-24T22:58:48.063Z"
45,0.8082349,-0.1955542,0.59018797,344,"2023-02-24T22:59:48.626Z"
41,0.8076392,-0.19547607,0.591416,345,"2023-02-24T23:00:49.188Z"
42,0.61593264,-0.0013696289,0.80479735,345,"2023-02-24T23:01:49.750Z"
50,0.616311,0.006179199,0.8048047,346,"2023-02-24T23:02:50.312Z"
44,0.6179126,0.018239746,0.80257326,346,"2023-02-24T23:03:50.875Z"
45,0.61360353,0.02116211,0.806106,347,"2023-02-24T23:04:51.437Z"
43,0.6146875,0.02576416,0.80503416,347,"2023-02-24T23:05:51.999Z"
41,0.6140332,0.027790528,0.805,348,"2023-02-24T23:06:52.546Z"
60,-0.34406984,0.91332763,0.35030028,342,"2023-02-25T05:06:29.629Z"
75,0.14409912,0.41649902,-0.9244043,346,"2023-02-25T05:07:30.192Z"
53,-0.7499292,0.6338599,-0.08267822,350,"2023-02-25T05:08:30.754Z"
65,-0.43646485,0.89904296,-0.07285645,352,"2023-02-25T05:09:31.316Z"
57,0.024125976,0.99321043,-0.10959229,352,"2023-02-25T05:10:31.847Z"
79,0.392229,-0.1832251,-0.91259277,355,"2023-02-25T05:11:32.409Z"
45,0.15094483,-1.0049219,-0.029936524,359,"2023-02-25T05:12:32.971Z"
41,0.14885499,-1.0048535,-0.031254884,359,"2023-02-25T05:13:33.534Z"
42,0.14797851,-1.0053369,-0.03158447,361,"2023-02-25T05:14:34.096Z"
38,0.14717041,-1.0054859,-0.031691894,365,"2023-02-25T05:15:34.658Z"
40,0.14860351,-1.0056835,-0.029362792,369,"2023-02-25T05:16:35.220Z"
41,0.14802735,-1.0051904,-0.029226074,372,"2023-02-25T05:17:35.782Z"
38,0.14826173,-1.0050464,-0.029223632,375,"2023-02-25T05:18:36.345Z"
38,0.14802001,-1.005293,-0.027089844,380,"2023-02-25T05:19:36.907Z"
39,0.14828613,-1.0055469,-0.027502442,382,"2023-02-25T05:20:37.469Z"
37,0.14864746,-1.005581,-0.026933594,384,"2023-02-25T05:21:38.031Z"
39,0.148208,-1.0050147,-0.02300293,387,"2023-02-25T05:22:38.594Z"
37,0.14807129,-1.0052369,-0.022214355,389,"2023-02-25T05:23:39.156Z"
41,0.14804688,-1.004956,-0.021809082,390,"2023-02-25T05:24:39.718Z"
37,0.14752442,-1.0053809,-0.02133545,392,"2023-02-25T05:25:40.280Z"
36,0.14601563,-1.0048388,-0.019362792,387,"2023-02-25T05:26:40.842Z"
36,0.1457251,-1.0047852,-0.018979492,388,"2023-02-25T05:27:41.404Z"
37,0.14662842,-1.0048535,-0.01982666,389,"2023-02-25T05:28:41.967Z"
55,-0.028330078,-0.9922339,-0.19919921,396,"2023-02-25T05:29:42.529Z"
35,-0.026242675,-0.9921655,-0.19703613,404,"2023-02-25T05:30:43.091Z"
39,-0.025415039,-0.9926172,-0.19681884,407,"2023-02-25T05:31:43.653Z"
39,-0.024816895,-0.9930103,-0.19692382,409,"2023-02-25T05:32:44.215Z"
39,-0.024396973,-0.99300295,-0.19601318,410,"2023-02-25T05:33:44.777Z"
39,-0.023515625,-0.9936279,-0.19343995,412,"2023-02-25T05:34:45.339Z"
38,-0.0034838868,-1.0068213,-0.10883545,413,"2023-02-25T05:35:45.902Z"
36,-0.0025732422,-1.0069946,-0.10660889,412,"2023-02-25T05:36:46.464Z"
37,-0.0039575193,-1.0070947,-0.105004884,413,"2023-02-25T05:37:47.026Z"
41,-0.009797364,-1.0066845,-0.11082275,412,"2023-02-25T05:38:47.588Z"
39,-0.0092944335,-1.0065771,-0.110686034,413,"2023-02-25T05:39:48.150Z"
40,-0.009853516,-1.0063721,-0.10820313,411,"2023-02-25T05:40:48.712Z"
42,-0.0086450195,-1.0062037,-0.10867676,412,"2023-02-25T05:41:49.275Z"
41,-0.008679199,-1.0063183,-0.10855713,413,"2023-02-25T05:42:49.837Z"
39,-0.008671875,-1.0066699,-0.10830078,414,"2023-02-25T05:43:50.399Z"
39,0.030744629,-1.001499,-0.14968994,414,"2023-02-25T05:44:50.968Z"
43,0.030173339,-1.0018653,-0.14868897,416,"2023-02-25T05:45:51.534Z"
39,0.031501465,-1.0022851,-0.14790772,416,"2023-02-25T05:46:52.096Z"
40,0.030708008,-1.0018506,-0.14708008,416,"2023-02-25T05:47:52.658Z"
45,0.24807861,-0.4574341,-0.8607617,416,"2023-02-25T05:48:53.221Z"
38,0.17943847,-0.5744898,-0.81185794,397,"2023-02-25T05:49:53.783Z"
42,0.17821777,-0.5881519,-0.8023975,395,"2023-02-25T05:50:54.345Z"
39,0.17943116,-0.5938574,-0.7986816,394,"2023-02-25T05:51:54.907Z"
64,0.64110595,-0.19812256,0.7683203,380,"2023-02-25T05:52:55.470Z"
39,0.6333301,-0.21020508,0.7708179,374,"2023-02-25T05:53:56.032Z"
43,0.6330005,-0.21224853,0.76948977,371,"2023-02-25T05:54:56.594Z"
39,0.63335204,-0.2135913,0.7680005,370,"2023-02-25T05:55:57.156Z"
38,0.63307863,-0.21425049,0.767771,368,"2023-02-25T05:56:57.704Z"
43,0.63271487,-0.21322021,0.76732665,367,"2023-02-25T05:57:58.266Z"
45,0.6326929,-0.21594238,0.7673584,366,"2023-02-25T05:58:58.828Z"
43,0.6329883,-0.21337402,0.767854,365,"2023-02-25T05:59:59.390Z"
38,0.48941895,0.6667676,-0.57918215,363,"2023-02-25T06:00:59.953Z"
43,0.48733154,0.6666553,-0.5813452,361,"2023-02-25T06:02:00.515Z"
40,0.49587646,0.66295654,-0.57829344,360,"2023-02-25T06:03:01.077Z"
45,0.49591064,0.66273683,-0.57922363,359,"2023-02-25T06:04:01.639Z"
42,0.4964502,0.66221434,-0.5792163,359,"2023-02-25T06:05:02.214Z"
45,0.49637207,0.66252685,-0.5791748,358,"2023-02-25T06:06:02.776Z"
40,0.49701416,0.66159666,-0.57999265,357,"2023-02-25T06:07:03.338Z"
45,0.49690187,0.66182864,-0.5796143,356,"2023-02-25T06:08:03.901Z"
45,0.49720216,0.6610791,-0.57906985,355,"2023-02-25T06:09:04.463Z"
39,0.032543946,-1.0119605,0.059169922,355,"2023-02-25T06:10:05.025Z"
40,0.032023925,-1.0117798,0.061030272,353,"2023-02-25T06:11:05.587Z"
41,0.032851562,-1.0117553,0.06145752,353,"2023-02-25T06:12:06.149Z"
42,0.030512696,-1.0115747,0.06330078,353,"2023-02-25T06:13:06.712Z"
38,0.031003417,-1.011643,0.06289063,352,"2023-02-25T06:14:07.274Z"
59,0.04176758,-1.0103003,-0.06793701,351,"2023-02-25T06:15:07.836Z"
41,0.041066896,-1.0105444,-0.066711426,351,"2023-02-25T06:16:08.398Z"
42,0.040693358,-1.0108936,-0.06775879,350,"2023-02-25T06:17:08.961Z"
41,0.040815428,-1.0104175,-0.064956054,350,"2023-02-25T06:18:09.523Z"
40,0.039313965,-1.0116528,-0.05149658,350,"2023-02-25T06:19:10.085Z"
39,0.03793945,-1.011604,-0.05174072,350,"2023-02-25T06:20:10.647Z"
37,0.032006837,-1.0122119,-0.047229003,350,"2023-02-25T06:21:11.209Z"
39,0.03133545,-1.0122094,-0.047749024,350,"2023-02-25T06:22:11.772Z"
42,0.031040039,-1.0111841,-0.04770996,350,"2023-02-25T06:23:12.334Z"
43,0.031032715,-1.0116943,-0.04857422,350,"2023-02-25T06:24:12.909Z"
38,0.030852051,-1.0119799,-0.04866455,351,"2023-02-25T06:25:13.471Z"
38,0.031247558,-1.0120044,-0.04950195,351,"2023-02-25T06:26:14.033Z"
42,0.02994873,-1.0112134,-0.049807128,350,"2023-02-25T06:27:14.595Z"
61,-0.212146,0.9118164,0.33204103,360,"2023-02-25T06:28:15.157Z"
74,-0.42122802,0.8418335,-0.022744142,373,"2023-02-25T06:29:15.719Z"
65,0.264458,0.9665454,-0.07839844,380,"2023-02-25T06:30:16.281Z"
68,0.35139892,0.8288721,-0.4653467,381,"2023-02-25T06:31:16.843Z"
53,0.34674805,0.69230956,0.6282788,382,"2023-02-25T06:32:17.406Z"
69,0.09818604,0.9408667,0.2890088,388,"2023-02-25T06:33:17.968Z"
70,0.11072265,0.9314331,0.33987793,389,"2023-02-25T06:34:18.530Z"
63,0.20709473,0.9577808,0.20421387,390,"2023-02-25T06:35:19.092Z"
62,0.3723755,0.8475146,0.39528808,369,"2023-02-25T06:36:19.655Z"
63,0.04161377,0.8412402,0.51988035,359,"2023-02-25T06:37:20.217Z"
60,0.28493652,0.93036866,0.24330322,353,"2023-02-25T06:38:20.779Z"
65,0.25602052,0.7859717,0.5315552,349,"2023-02-25T06:39:21.342Z"
70,0.2511914,0.7802344,0.54341066,345,"2023-02-25T06:40:21.904Z"
65,0.18697754,0.81473875,0.54802245,342,"2023-02-25T06:41:22.466Z"
65,0.7862134,0.45974365,0.4513379,339,"2023-02-25T06:42:23.028Z"
68,0.011962891,0.91416013,0.34499022,337,"2023-02-25T06:43:23.590Z"
70,0.22180176,0.76364255,0.59431887,335,"2023-02-25T06:44:24.153Z"
66,0.25046143,0.77443606,0.5820874,333,"2023-02-25T06:45:24.715Z"
53,0.38431153,0.9092676,0.2086377,332,"2023-02-25T06:46:25.277Z"
61,0.35575196,0.92844236,0.15158203,329,"2023-02-25T06:47:25.839Z"
62,0.3971631,0.902019,0.20076416,327,"2023-02-25T06:48:26.402Z"
60,0.39022216,0.8949292,0.23566163,326,"2023-02-25T06:49:26.964Z"
69,0.35229003,0.92188966,0.18904053,323,"2023-02-25T06:50:27.526Z"
74,0.6388867,0.6360229,-0.19833252,321,"2023-02-25T06:51:28.088Z"
72,-0.9777295,0.023188477,-0.3068872,320,"2023-02-25T06:52:28.650Z"
54,0.050639648,0.66084963,-0.7555005,320,"2023-02-25T06:53:29.213Z"
54,0.025341798,0.80322266,-0.61571044,322,"2023-02-25T06:54:29.775Z"
53,0.021779785,0.71199465,-0.70785886,320,"2023-02-25T06:55:30.337Z"
56,0.0056298827,0.7155078,-0.7041699,320,"2023-02-25T06:56:30.899Z"
56,0.01248291,0.7168628,-0.70265627,321,"2023-02-25T06:57:31.462Z"
50,0.004003906,0.7811304,-0.63001466,319,"2023-02-25T06:58:32.024Z"
56,0.0006274414,0.74970704,-0.6668872,319,"2023-02-25T06:59:32.586Z"
59,0.71790284,0.61978513,-0.36608887,318,"2023-02-25T07:00:33.148Z"
94,-0.8101758,0.5799902,0.017346192,311,"2023-02-25T07:01:33.711Z"
77,-0.87342286,0.52609617,0.1885254,321,"2023-02-25T07:02:34.272Z"
78,0.020332031,0.821521,-0.42948,337,"2023-02-25T07:03:34.834Z"
79,-0.095771484,0.65250975,0.6985669,347,"2023-02-25T07:04:35.397Z"
87,-0.67144775,0.7019043,-0.22704345,354,"2023-02-25T07:05:35.959Z"
78,-0.3832715,0.849375,-0.417251,356,"2023-02-25T07:06:36.521Z"
78,-0.5489087,0.43791017,0.61731446,357,"2023-02-25T07:07:37.083Z"
77,-0.22443847,0.6331079,-0.7503418,361,"2023-02-25T07:08:37.646Z"
72,-0.21918213,0.84959716,0.33061522,348,"2023-02-25T07:09:38.208Z"
78,0.09777588,0.58271486,0.72801757,339,"2023-02-25T07:10:38.756Z"
76,0.15867431,0.4686084,-0.89309573,336,"2023-02-25T07:11:39.318Z"
71,0.01420166,0.85028565,0.4641577,332,"2023-02-25T07:12:39.880Z"
74,-0.7239746,0.639812,0.017424317,330,"2023-02-25T07:13:40.442Z"
65,-0.4653125,0.9082715,-0.05163086,328,"2023-02-25T07:14:41.005Z"
75,0.021259766,0.9661914,-0.019951172,325,"2023-02-25T07:15:41.567Z"
76,-0.5751123,0.7107544,0.37765136,322,"2023-02-25T07:16:42.129Z"
84,-0.14135009,0.71413577,-0.6881445,321,"2023-02-25T07:17:42.691Z"
71,-0.50247556,0.6956567,0.3897998,319,"2023-02-25T07:18:43.254Z"
67,0.030507812,0.60071045,0.7868628,318,"2023-02-25T07:19:43.816Z"
68,-0.18385498,0.8443897,0.4792798,317,"2023-02-25T07:20:44.378Z"
62,-0.19177246,0.8807422,0.41448486,316,"2023-02-25T07:21:44.940Z"
66,-0.6173804,0.7271338,0.24881835,314,"2023-02-25T07:22:45.503Z"
74,-0.37664795,0.82626224,0.3298706,313,"2023-02-25T07:23:46.065Z"
75,0.179729,0.86586183,0.454104,312,"2023-02-25T07:24:46.627Z"
76,-0.061269533,0.9845947,-0.07264893,312,"2023-02-25T07:25:47.189Z"
83,-0.2984668,0.73769534,0.5572046,321,"2023-02-25T07:26:47.751Z"
75,0.3697168,0.6820483,-0.23540527,334,"2023-02-25T07:27:48.313Z"
78,-0.45832032,0.8816455,0.014489746,340,"2023-02-25T07:28:48.875Z"
77,-0.27570558,0.6925806,-0.6903393,345,"2023-02-25T07:29:49.438Z"
70,-0.25094482,0.82234865,0.4169922,352,"2023-02-25T07:30:50.000Z"
68,-0.006538086,0.90738034,-0.30833495,341,"2023-02-25T07:31:50.563Z"
75,-0.06900391,1.0045336,0.04272461,333,"2023-02-25T07:32:51.125Z"
76,0.054826662,0.96858156,-0.31072998,341,"2023-02-25T07:33:51.687Z"
72,-0.64708006,0.7637915,-0.09556641,352,"2023-02-25T07:34:52.233Z"
80,-0.41986817,0.7653711,0.20993653,342,"2023-02-25T07:35:52.796Z"
84,0.94238526,0.35335204,-0.18365967,331,"2023-02-25T07:36:53.358Z"
77,0.6592383,0.6858667,0.29238525,325,"2023-02-25T07:37:53.920Z"
73,0.25657713,0.5804956,0.41135988,322,"2023-02-25T07:38:54.483Z"
84,0.76992434,0.33505127,0.25006348,320,"2023-02-25T07:39:55.045Z"
70,0.84661865,0.35291016,0.35168457,318,"2023-02-25T07:40:55.606Z"
74,0.5959497,0.82673585,0.022189941,316,"2023-02-25T07:41:56.169Z"
79,0.93829346,0.22403565,-0.22451904,313,"2023-02-25T07:42:56.732Z"
71,0.46951416,0.67107177,0.56650877,308,"2023-02-25T07:43:57.294Z"
64,-0.19098876,0.62040037,0.6662207,304,"2023-02-25T07:44:57.856Z"
69,0.075021975,0.96188474,0.14266357,300,"2023-02-25T07:45:58.418Z"
74,0.5867334,0.23489258,0.73537356,298,"2023-02-25T07:46:58.981Z"
76,-0.19412842,0.45648682,0.8372168,295,"2023-02-25T07:47:59.543Z"
75,-0.29831788,0.6187451,0.6691211,294,"2023-02-25T07:49:00.105Z"
68,0.78735596,0.29215333,0.52437747,293,"2023-02-25T07:50:00.667Z"
78,-0.43541503,0.7640771,0.41661865,295,"2023-02-25T07:51:01.230Z"
70,-0.24412353,0.73424315,-0.63736814,294,"2023-02-25T07:52:01.792Z"
61,-0.6533374,0.278938,-0.64229983,294,"2023-02-25T07:53:02.354Z"
70,-0.8883984,0.48795655,0.040090334,292,"2023-02-25T07:54:02.917Z"
82,-0.751748,0.5744922,-0.17211181,292,"2023-02-25T07:55:03.479Z"
71,-0.40658203,0.8225244,-0.3178906,292,"2023-02-25T07:56:04.041Z"
78,-0.9211792,0.61296874,-0.10525146,292,"2023-02-25T07:57:04.604Z"
80,-0.4976367,0.81487304,0.2728784,290,"2023-02-25T07:58:05.166Z"
76,-0.0559375,0.8957178,-0.07686523,289,"2023-02-25T07:59:05.728Z"
73,-0.35964355,0.9057983,0.05659912,290,"2023-02-25T08:00:06.290Z"
76,-0.9082764,0.4372827,-0.053581543,290,"2023-02-25T08:01:06.853Z"
74,-0.3607129,0.9002759,0.06269775,290,"2023-02-25T08:02:07.415Z"
71,-0.44109374,0.83227783,0.24996582,290,"2023-02-25T08:03:07.977Z"
73,-0.66389406,0.45574707,-0.6154419,290,"2023-02-25T08:04:08.540Z"
76,-0.6164844,0.69270265,-0.24026123,292,"2023-02-25T08:05:09.102Z"
74,0.2920874,0.9343384,0.16501221,292,"2023-02-25T08:06:09.664Z"
77,-0.44800782,0.833855,-0.28878906,293,"2023-02-25T08:07:10.226Z"
80,-0.09144531,0.9605933,0.024636231,293,"2023-02-25T08:08:10.789Z"
77,-0.6893384,0.34061524,-0.6375659,294,"2023-02-25T08:09:11.351Z"
72,-0.5709424,0.795166,-0.17460693,293,"2023-02-25T08:10:11.913Z"
77,-0.48642823,0.73528075,-0.24365479,292,"2023-02-25T08:11:12.475Z"
77,-0.622102,0.32060546,-0.73351806,291,"2023-02-25T08:12:13.038Z"
70,0.67716306,0.24945068,0.6490381,290,"2023-02-25T08:13:13.600Z"
78,-0.8758838,-0.05955078,-0.48077637,290,"2023-02-25T08:14:14.162Z"
81,0.8178442,0.21285889,0.51394534,289,"2023-02-25T08:15:14.725Z"
79,-0.85323244,0.46285155,-0.19806397,291,"2023-02-25T08:16:15.287Z"
79,-0.11324219,1.02427,-0.05102295,290,"2023-02-25T08:17:15.849Z"
83,0.06924316,0.91582274,-0.3714917,289,"2023-02-25T08:18:16.411Z"
80,-0.30222657,0.78469485,-0.5009668,283,"2023-02-25T08:19:16.974Z"
76,-0.6861914,0.69012696,-0.12856933,280,"2023-02-25T08:20:17.536Z"
76,-0.5371411,0.76675296,-0.118222654,276,"2023-02-25T08:21:18.098Z"
88,-0.8593579,0.3956421,0.17088135,271,"2023-02-25T08:22:18.661Z"
76,-0.86889404,0.4737085,-0.079372555,264,"2023-02-25T08:23:19.223Z"
74,-0.35909668,0.68408203,-0.61770993,260,"2023-02-25T08:24:19.785Z"
78,-0.36284912,0.7034082,-0.6169238,255,"2023-02-25T08:25:20.347Z"
79,-0.30733886,0.71004885,-0.60439944,252,"2023-02-25T08:26:20.910Z"
80,-0.8956299,0.3270288,0.2370044,251,"2023-02-25T08:27:21.472Z"
81,0.26019776,0.9556519,-0.102695316,253,"2023-02-25T08:28:22.034Z"
74,-0.8635034,0.3540918,0.27733153,255,"2023-02-25T08:29:22.597Z"
83,-0.31711182,0.4842871,0.078435056,257,"2023-02-25T08:30:23.159Z"
86,-0.253833,0.91578126,-0.30452392,259,"2023-02-25T08:31:23.721Z"
88,-0.58058596,0.7144922,-0.2767627,260,"2023-02-25T08:32:24.284Z"
81,-0.5123022,0.87774414,-0.1459912,261,"2023-02-25T08:33:24.846Z"
75,-0.87394285,0.46991456,-0.10880859,264,"2023-02-25T08:34:25.408Z"
68,-0.9617554,0.41776857,-0.009106445,263,"2023-02-25T08:35:25.956Z"
74,-0.29827636,0.76027346,-0.5861841,262,"2023-02-25T08:36:26.518Z"
70,-0.037993163,0.6858911,-0.739187,260,"2023-02-25T08:37:27.080Z"
61,0.25715333,0.9165674,-0.23325683,260,"2023-02-25T08:38:27.643Z"
67,0.108811036,0.86369383,0.4772046,259,"2023-02-25T08:39:28.205Z"
63,-0.14368409,0.87340087,-0.24648681,258,"2023-02-25T08:40:28.767Z"
60,-0.5193579,0.5324487,-0.49134767,260,"2023-02-25T08:41:29.329Z"
131,-0.5981006,0.5938379,0.0073974608,258,"2023-02-25T08:42:29.892Z"
133,-0.675376,0.5743286,0.035449218,256,"2023-02-25T08:43:30.454Z"
130,-0.12873535,0.44734374,0.120126955,252,"2023-02-25T08:44:31.017Z"
112,-0.77839845,0.32065186,-0.16293946,251,"2023-02-25T08:45:31.579Z"
93,-0.06846192,0.8891992,-0.45844728,251,"2023-02-25T08:46:32.141Z"
126,-0.8189746,0.65872073,0.12721436,251,"2023-02-25T08:47:32.703Z"
141,-0.7677637,0.38559082,0.100080565,250,"2023-02-25T08:48:33.266Z"
141,-0.7174097,0.69302005,0.251958,249,"2023-02-25T08:49:33.828Z"
132,-0.709917,0.5101904,-0.49223387,249,"2023-02-25T08:50:34.390Z"
106,0.75440186,0.4263135,0.47534424,251,"2023-02-25T08:51:34.952Z"
137,-0.82702637,0.60658693,0.123137206,250,"2023-02-25T08:52:35.515Z"
137,-1.1157593,0.7640454,0.11321289,250,"2023-02-25T08:53:36.077Z"
148,-0.37862548,0.3884961,0.15379883,250,"2023-02-25T08:54:36.640Z"
133,-0.92655027,0.47739747,-0.17476563,251,"2023-02-25T08:55:37.202Z"
107,-0.87403566,0.34379637,0.31569824,252,"2023-02-25T08:56:37.764Z"
130,-1.7346045,0.72667235,0.1418872,254,"2023-02-25T08:57:38.327Z"
135,-0.77686524,0.6593359,0.2800537,254,"2023-02-25T08:58:38.889Z"
132,-0.17672119,0.51816404,0.23149414,255,"2023-02-25T08:59:39.451Z"
132,-0.91354007,0.41778076,-0.03868164,256,"2023-02-25T09:00:40.013Z"
103,-0.93744385,0.23312744,-0.0072924807,255,"2023-02-25T09:01:40.576Z"
133,-0.6336987,0.7153198,0.29009765,254,"2023-02-25T09:02:41.138Z"
122,-0.75404054,0.79737306,0.22845215,254,"2023-02-25T09:03:41.700Z"
138,-0.47165284,0.5384424,0.14845948,254,"2023-02-25T09:04:42.263Z"
137,0.64865476,0.2142041,0.59402585,257,"2023-02-25T09:05:42.825Z"
111,-1.0516528,0.3799756,-0.13297851,258,"2023-02-25T09:06:43.387Z"
129,-1.5092652,0.97161376,0.14876708,258,"2023-02-25T09:07:43.950Z"
145,-0.7976758,0.65238035,0.19925538,259,"2023-02-25T09:08:44.512Z"
145,-1.022876,0.75073487,0.32615235,258,"2023-02-25T09:09:45.074Z"
136,-0.88226074,0.39752197,-0.036784668,260,"2023-02-25T09:10:45.636Z"
112,-0.06829834,0.9607544,0.016083984,262,"2023-02-25T09:11:46.199Z"
85,-0.43667725,0.82930666,-0.35282472,264,"2023-02-25T09:12:46.761Z"
87,-0.8902881,0.43708742,0.071428224,266,"2023-02-25T09:13:47.323Z"
82,-0.9035376,0.42699218,-0.007839356,267,"2023-02-25T09:14:47.886Z"
90,-0.9308447,0.3009375,-0.036420897,269,"2023-02-25T09:15:48.448Z"
99,-0.82978517,0.5273633,0.09215088,269,"2023-02-25T09:16:49.010Z"
89,-0.8867847,0.41083252,0.06393066,269,"2023-02-25T09:17:49.573Z"
81,-0.8951782,0.41848633,-0.08106201,269,"2023-02-25T09:18:50.135Z"
82,0.31301513,0.8480176,-0.4481006,269,"2023-02-25T09:19:50.697Z"
87,-0.90643555,0.37986574,-0.035388183,270,"2023-02-25T09:20:51.260Z"
104,-0.88760495,0.41566408,0.051535644,270,"2023-02-25T09:21:51.822Z"
90,0.0912793,0.9215259,-0.1727832,269,"2023-02-25T09:22:52.384Z"
99,0.0051147463,0.2383252,0.71342283,267,"2023-02-25T09:23:52.946Z"
122,0.06977295,0.7642749,-0.6513208,273,"2023-02-25T09:24:53.509Z"
112,-0.8899414,0.3975342,-0.05652832,275,"2023-02-25T09:25:54.071Z"
94,-0.88064456,0.435979,-0.043173827,276,"2023-02-25T09:26:54.633Z"
84,-0.44249022,0.6566113,-0.4618872,277,"2023-02-25T09:27:55.196Z"
91,-0.11236572,0.8419067,0.5462891,273,"2023-02-25T09:28:55.758Z"
96,-0.6651489,0.7048926,0.044177245,279,"2023-02-25T09:29:56.320Z"
101,-0.9031494,0.37823975,-0.047199707,280,"2023-02-25T09:30:56.882Z"
91,-0.29087648,0.838335,0.35063475,280,"2023-02-25T09:31:57.445Z"
82,-0.9557007,0.16384766,-0.16814697,283,"2023-02-25T09:32:58.007Z"
114,-0.51956296,0.30570558,0.7381323,279,"2023-02-25T09:33:58.569Z"
130,-0.9849878,0.09894043,0.05269287,284,"2023-02-25T09:34:59.132Z"
116,0.037653808,0.8858984,-0.47216552,286,"2023-02-25T09:35:59.694Z"
92,0.16750732,0.8576587,-0.4986743,282,"2023-02-25T09:37:00.256Z"
76,-0.2136621,0.9041699,0.34020752,285,"2023-02-25T09:38:00.818Z"
80,0.2642456,0.95781493,0.12508544,291,"2023-02-25T09:39:01.381Z"
80,-1.0324488,0.5515527,-0.06601319,291,"2023-02-25T09:40:01.943Z"
104,-0.6510083,0.70678955,0.1797412,290,"2023-02-25T09:41:02.505Z"
102,-0.46969727,0.7757397,-0.4193262,289,"2023-02-25T09:42:03.067Z"
95,-0.83357424,0.6000781,-0.3381421,289,"2023-02-25T09:43:03.630Z"
112,-0.7019141,0.6310205,-0.09025147,312,"2023-02-25T09:44:04.192Z"
101,-0.7145703,0.62252927,-0.094616696,327,"2023-02-25T09:45:04.754Z"
101,-0.63785887,0.63689697,-0.41563475,321,"2023-02-25T09:46:05.316Z"
96,-0.283562,0.9537109,-0.14412841,313,"2023-02-25T09:47:05.879Z"
96,0.4796167,0.71636474,0.41529298,307,"2023-02-25T09:48:06.441Z"
101,0.9145191,-0.12031494,0.2950122,303,"2023-02-25T09:49:07.003Z"
107,-0.85209715,0.6529907,-0.28618163,299,"2023-02-25T09:50:07.565Z"
100,-0.38776124,0.8126514,-0.44541505,296,"2023-02-25T09:51:08.128Z"
103,-0.011254882,1.0258081,0.10294189,292,"2023-02-25T09:52:08.690Z"
66,-0.8669165,0.4621338,-0.14076905,291,"2023-02-25T09:53:09.252Z"
79,-0.4324536,0.5401294,0.7226367,285,"2023-02-25T09:54:09.814Z"
67,-0.021113282,0.96132326,-0.27746826,286,"2023-02-25T09:55:10.377Z"
69,0.0421875,0.93938965,-0.3528955,283,"2023-02-25T09:56:10.939Z"
62,0.18417236,0.86380124,-0.48550293,282,"2023-02-25T09:57:11.501Z"
61,0.2504712,0.7985791,-0.5656177,283,"2023-02-25T09:58:12.064Z"
66,0.262041,0.95022464,-0.19853027,284,"2023-02-25T09:59:12.626Z"
68,0.27995604,0.95624024,0.10897217,286,"2023-02-25T10:00:13.188Z"
67,0.2844409,0.759292,-0.603396,288,"2023-02-25T10:01:13.750Z"
66,0.14521728,0.8583789,-0.50604004,290,"2023-02-25T10:02:14.313Z"
68,0.16483887,0.9423657,-0.30822998,293,"2023-02-25T10:03:14.875Z"
74,-0.27645752,0.6848389,0.64946777,291,"2023-02-25T10:04:15.437Z"
76,0.14207764,0.8171118,-0.5727124,293,"2023-02-25T10:05:16.000Z"
69,-0.44121337,0.8752686,0.13134277,294,"2023-02-25T10:06:16.562Z"
73,-0.16032226,0.96348876,0.17076172,294,"2023-02-25T10:07:17.124Z"
79,-0.84126467,0.42110595,0.062058106,294,"2023-02-25T10:08:17.687Z"
85,0.8873413,-0.06820801,0.4857666,293,"2023-02-25T10:09:18.249Z"
80,-0.36126465,0.91338134,-0.16436523,290,"2023-02-25T10:10:18.811Z"
79,0.06604736,0.9955005,-0.3116504,289,"2023-02-25T10:11:19.373Z"
75,-0.33611816,0.7193213,0.5789038,286,"2023-02-25T10:12:19.936Z"
73,0.5425708,0.71246827,-0.47905272,286,"2023-02-25T10:13:20.498Z"
69,0.7993262,0.5927173,-0.19872071,288,"2023-02-25T10:14:21.060Z"
69,0.48269287,0.86947024,-0.17967041,290,"2023-02-25T10:15:21.622Z"
69,0.36554933,0.92936766,0.12248779,292,"2023-02-25T10:16:22.185Z"
69,0.44842774,0.9029175,-0.0673584,294,"2023-02-25T10:17:22.747Z"
76,0.676499,0.6216943,-0.43020508,296,"2023-02-25T10:18:23.309Z"
70,0.6062402,0.7494629,-0.3116797,299,"2023-02-25T10:19:23.872Z"
70,0.7324829,0.61168945,-0.3415674,300,"2023-02-25T10:20:24.434Z"
66,0.41378173,0.9109595,-0.10788086,300,"2023-02-25T10:21:24.996Z"
69,0.6574341,0.7389575,-0.20095214,302,"2023-02-25T10:22:25.558Z"
84,-0.43648192,0.73733157,-0.42333496,303,"2023-02-25T10:23:26.121Z"
77,-0.63186765,0.69374025,0.2966333,302,"2023-02-25T10:24:26.683Z"
84,0.07138672,0.9209253,0.057617188,301,"2023-02-25T10:25:27.245Z"
83,-0.45005128,0.7325879,-0.44115967,300,"2023-02-25T10:26:27.807Z"
65,-0.07585693,0.73721194,-0.6893286,299,"2023-02-25T10:27:28.370Z"
76,-0.93020993,0.33083495,0.11654053,299,"2023-02-25T10:28:28.932Z"
79,-0.9600928,0.24015136,0.2257666,299,"2023-02-25T10:29:29.494Z"
89,-0.9407422,0.3447925,0.09934814,298,"2023-02-25T10:30:30.056Z"
78,-0.91920656,0.2983081,0.2138208,297,"2023-02-25T10:31:30.619Z"
76,-0.90518796,0.4011377,0.09128418,295,"2023-02-25T10:32:31.181Z"
93,-0.69844973,0.6872534,0.0805835,294,"2023-02-25T10:33:31.743Z"
91,-0.43791258,0.82462156,0.12697753,293,"2023-02-25T10:34:32.305Z"
82,-0.47144043,0.42129883,-0.7688208,291,"2023-02-25T10:35:32.868Z"
77,-0.3909668,0.9029858,0.093571775,290,"2023-02-25T10:36:33.430Z"
71,-0.5830176,0.8171118,-0.07656006,286,"2023-02-25T10:37:33.992Z"
82,-0.055837404,0.82420164,-0.5693506,284,"2023-02-25T10:38:34.554Z"
68,-0.72865236,0.7543164,0.062368166,281,"2023-02-25T10:39:35.117Z"
75,0.23800537,0.90402585,-0.38386962,285,"2023-02-25T10:40:35.679Z"
78,-0.41117433,0.7694873,0.1871875,281,"2023-02-25T10:41:36.241Z"
56,0.00546875,0.738562,0.54023683,278,"2023-02-25T10:42:36.804Z"
53,0.63932616,0.7261377,-0.0037475587,272,"2023-02-25T10:43:37.366Z"
64,-0.04566162,0.6335986,0.7216748,271,"2023-02-25T10:44:37.927Z"
53,-0.051865235,0.9904077,-0.12672363,270,"2023-02-25T10:45:38.490Z"
60,-0.14179687,0.98905516,0.06996094,272,"2023-02-25T10:46:39.053Z"
57,0.2771167,0.8998364,0.3220044,276,"2023-02-25T10:47:39.615Z"
59,0.10168213,0.84558594,0.50926024,277,"2023-02-25T10:48:40.177Z"
67,0.08834229,0.8712207,0.49206543,276,"2023-02-25T10:49:40.740Z"
73,0.0011938476,0.9265088,0.26953125,276,"2023-02-25T10:50:41.302Z"
65,0.21581298,0.9548657,0.07008545,279,"2023-02-25T10:51:41.864Z"
61,0.10018066,0.86884034,0.35177734,278,"2023-02-25T10:52:42.427Z"
65,0.59657717,0.3463501,0.7308911,278,"2023-02-25T10:53:42.989Z"
73,0.66093016,0.0064916993,0.6432178,280,"2023-02-25T10:54:43.550Z"
75,0.121494144,0.8808618,0.3801587,277,"2023-02-25T10:55:44.113Z"
81,0.23787841,0.9066309,0.38802245,275,"2023-02-25T10:56:44.676Z"
66,0.15734375,0.8505151,0.4915747,276,"2023-02-25T10:57:45.238Z"
68,0.26160645,0.93283933,0.29492432,274,"2023-02-25T10:58:45.800Z"
72,0.27770263,0.9588843,0.045566406,273,"2023-02-25T10:59:46.363Z"
62,0.3589795,0.9276611,0.11136719,273,"2023-02-25T11:00:46.925Z"
63,0.44891602,0.8359741,-0.31758544,274,"2023-02-25T11:01:47.487Z"
67,0.7493286,0.65707034,0.25033936,273,"2023-02-25T11:02:48.049Z"
67,0.38250244,0.76160157,-0.541792,273,"2023-02-25T11:03:48.612Z"
65,0.0055688475,0.9638135,0.2539917,274,"2023-02-25T11:04:49.173Z"
67,-0.058205567,0.73533446,0.65367675,275,"2023-02-25T11:05:49.736Z"
71,-0.10340576,0.86437255,-0.50857425,276,"2023-02-25T11:06:50.299Z"
57,-0.40066162,-0.052021485,0.9093213,274,"2023-02-25T11:07:50.861Z"
73,-0.17850585,0.9674878,0.12127441,277,"2023-02-25T11:08:51.423Z"
70,0.24773681,0.8362012,0.32904541,279,"2023-02-25T11:09:51.985Z"
66,0.23988526,0.7965576,0.550166,280,"2023-02-25T11:10:52.548Z"
71,-0.34172118,0.92398435,0.09453858,278,"2023-02-25T11:11:53.110Z"
65,-0.4297656,0.88078123,0.12201416,277,"2023-02-25T11:12:53.672Z"
55,-0.3378784,0.9064819,0.20166016,277,"2023-02-25T11:13:54.235Z"
51,-0.31589845,0.8874316,0.2942456,277,"2023-02-25T11:14:54.797Z"
59,-0.3137549,0.8869482,0.30162597,277,"2023-02-25T11:15:55.359Z"
51,-0.53204834,0.82164794,0.10899902,278,"2023-02-25T11:16:55.921Z"
53,-0.52363527,0.80894774,0.1998462,279,"2023-02-25T11:17:56.484Z"
57,0.042145997,0.87940186,-0.46853027,280,"2023-02-25T11:18:57.046Z"
49,-0.09681885,0.922417,-0.3751587,280,"2023-02-25T11:19:57.608Z"
61,-0.09034668,0.94427246,-0.3146753,280,"2023-02-25T11:20:58.170Z"
57,-0.091330566,0.89591795,0.41717774,280,"2023-02-25T11:21:58.733Z"
51,-0.034494627,0.79087156,0.5929175,279,"2023-02-25T11:22:59.295Z"
60,-0.112912595,0.8302075,0.52677,281,"2023-02-25T11:23:59.857Z"
55,-0.057722166,0.82618654,0.54394287,282,"2023-02-25T11:25:00.420Z"
54,-0.08666748,0.8163769,0.55726075,284,"2023-02-25T11:26:00.982Z"
50,-0.09806397,0.79538816,0.5677954,286,"2023-02-25T11:27:01.544Z"
64,-0.120004885,0.9399145,0.26649657,292,"2023-02-25T11:28:02.106Z"
74,-0.395459,0.8657153,-0.07085694,294,"2023-02-25T11:29:02.669Z"
54,-0.38886476,0.904187,0.099020995,296,"2023-02-25T11:30:03.231Z"
59,0.07954346,0.7804321,0.60733396,299,"2023-02-25T11:31:03.793Z"
63,-0.7471387,0.63539064,0.1503247,301,"2023-02-25T11:32:04.355Z"
65,0.40415773,0.6412817,-0.6703418,302,"2023-02-25T11:33:04.918Z"
69,-0.8965185,0.2032544,0.13969238,304,"2023-02-25T11:34:05.480Z"
81,-0.98144776,0.14358398,0.25596437,306,"2023-02-25T11:35:06.042Z"
77,-0.91022706,0.27395508,0.20284668,306,"2023-02-25T11:36:06.604Z"
96,-0.90246093,0.39488038,-0.11890625,307,"2023-02-25T11:37:07.167Z"
110,-0.9038696,0.3001709,0.11989746,307,"2023-02-25T11:38:07.729Z"
114,-0.95660156,0.23913819,0.19565673,306,"2023-02-25T11:39:08.291Z"
115,-0.92920166,0.22219971,0.04437256,306,"2023-02-25T11:40:08.854Z"
125,-0.94755125,0.29442137,0.122019045,306,"2023-02-25T11:41:09.416Z"
125,-0.77369875,0.6041162,-0.011938477,305,"2023-02-25T11:42:09.978Z"
103,-0.886189,0.39819092,0.17925781,305,"2023-02-25T11:43:10.540Z"
125,-0.9194019,0.29423097,0.115515135,305,"2023-02-25T11:44:11.103Z"
113,-0.765603,0.5205005,-0.20754883,304,"2023-02-25T11:45:11.665Z"
115,-0.8810791,0.4224829,0.16089843,303,"2023-02-25T11:46:12.227Z"
119,-0.9935327,0.19951417,0.062485352,302,"2023-02-25T11:47:12.789Z"
112,-0.95028806,0.3317334,0.13498536,300,"2023-02-25T11:48:13.352Z"
91,-0.8618384,0.34476075,0.08530518,300,"2023-02-25T11:49:13.914Z"
79,-0.24506591,0.94484377,-0.13690186,299,"2023-02-25T11:50:14.476Z"
86,0.082612306,0.8397388,-0.6035034,299,"2023-02-25T11:51:15.038Z"
91,-0.47387695,0.8309643,-0.06105957,300,"2023-02-25T11:52:15.601Z"
69,-0.37701172,0.8434644,-0.3672949,301,"2023-02-25T11:53:16.163Z"
57,-0.6686987,0.64292234,0.1323999,299,"2023-02-25T11:54:16.725Z"
64,0.16798095,0.66969484,-0.6963232,297,"2023-02-25T11:55:17.287Z"
74,-0.6954126,0.44682616,-0.5499463,296,"2023-02-25T11:56:17.850Z"
63,0.20750733,0.89839846,-0.39955565,295,"2023-02-25T11:57:18.412Z"
52,0.29595703,0.7327124,-0.625249,293,"2023-02-25T11:58:18.974Z"
51,0.28154296,0.71033204,-0.65889895,294,"2023-02-25T11:59:19.536Z"
48,0.34238282,0.7597217,-0.56583005,296,"2023-02-25T12:00:20.099Z"
56,0.38957518,0.66530275,-0.65060306,298,"2023-02-25T12:01:20.661Z"
