"hr","accel_x","accel_y","accel_z","skin_temp","ts"
49,-0.17307861,0.32757324,0.925166,325,"2022-12-09T10:36:32.344Z"
60,0.273562,0.9562378,-0.050827637,329,"2022-12-09T10:37:32.888Z"
67,0.2395459,0.9544409,-0.16902588,334,"2022-12-09T10:38:33.433Z"
50,0.20641845,0.9580176,-0.18763672,337,"2022-12-09T10:39:33.995Z"
53,0.1920337,0.95945555,-0.1948877,340,"2022-12-09T10:40:34.557Z"
49,0.27670166,0.9163257,-0.29875,343,"2022-12-09T10:41:35.102Z"
44,0.26930907,0.93461424,-0.2337085,345,"2022-12-09T10:42:35.664Z"
56,0.2657544,0.90765136,-0.3482373,348,"2022-12-09T10:43:36.226Z"
51,0.32651612,0.77020264,0.5273828,349,"2022-12-09T10:44:36.770Z"
46,0.27241457,0.89901614,-0.35125977,352,"2022-12-09T10:45:37.333Z"
65,0.4782617,0.40572754,0.73383546,354,"2022-12-09T10:46:37.895Z"
66,0.06310791,0.48439208,0.84959716,352,"2022-12-09T10:47:38.439Z"
70,0.3181836,0.67526126,0.5905664,353,"2022-12-09T10:48:39.001Z"
80,0.26653808,0.71232176,0.46171388,350,"2022-12-09T10:49:39.563Z"
75,-0.3978247,0.7251807,0.39408448,350,"2022-12-09T10:50:40.125Z"
95,-0.06591797,0.98075926,-0.3030835,349,"2022-12-09T10:51:40.688Z"
98,0.13426758,0.30195314,0.9109912,349,"2022-12-09T10:52:41.250Z"
84,0.092268065,0.38194335,0.9039453,351,"2022-12-09T10:53:41.812Z"
73,0.33367187,0.9094824,-0.24720214,352,"2022-12-09T10:54:42.374Z"
53,0.59884036,0.70340574,0.3827246,354,"2022-12-09T10:55:42.936Z"
46,0.5889966,0.64147705,0.48671386,355,"2022-12-09T10:56:43.498Z"
46,0.83513916,0.43269774,0.36131835,358,"2022-12-09T10:57:44.061Z"
56,0.4278589,0.81984866,-0.14297363,360,"2022-12-09T10:58:44.623Z"
63,0.29995117,0.94715333,-0.10873535,358,"2022-12-09T10:59:45.185Z"
69,0.34634277,0.9261865,0.114799805,359,"2022-12-09T11:00:45.747Z"
58,0.34171388,0.9369995,0.02199707,360,"2022-12-09T11:01:46.309Z"
59,0.34404296,0.9375098,-0.027451172,363,"2022-12-09T11:02:46.871Z"
59,0.423396,0.84920657,0.29371825,364,"2022-12-09T11:03:47.433Z"
55,0.407146,0.77559084,0.47368407,366,"2022-12-09T11:04:47.995Z"
71,0.48624757,0.82457274,-0.29369628,366,"2022-12-09T11:05:48.557Z"
65,0.07827881,0.36882323,0.9139966,366,"2022-12-09T11:06:49.119Z"
68,0.14841065,0.45026612,0.8699463,366,"2022-12-09T11:07:49.682Z"
83,-0.023198241,0.24870606,0.9580444,366,"2022-12-09T11:08:50.244Z"
75,0.09886475,0.47348633,0.85567874,366,"2022-12-09T11:09:50.806Z"
98,0.096635744,0.44154054,0.8834619,367,"2022-12-09T11:10:51.368Z"
82,0.07694092,0.41886476,0.8974463,369,"2022-12-09T11:11:51.913Z"
75,0.32758546,0.83524656,0.42448243,369,"2022-12-09T11:12:52.475Z"
82,0.10226074,0.46753174,0.87071776,370,"2022-12-09T11:13:53.037Z"
71,0.7422314,0.34494874,0.56894773,369,"2022-12-09T11:14:53.599Z"
72,0.23119384,0.8952417,0.34531495,369,"2022-12-09T11:15:55.122Z"
71,0.021540528,0.2350415,0.9662427,372,"2022-12-09T11:16:55.684Z"
68,0.3915503,0.91953856,-0.016208496,365,"2022-12-09T11:17:56.247Z"
69,0.3082007,0.93129885,-0.20537354,366,"2022-12-09T11:18:56.809Z"
65,0.020944824,0.21379639,0.9706006,373,"2022-12-09T11:19:57.371Z"
58,0.04097412,0.22444825,0.96784425,375,"2022-12-09T11:20:57.933Z"
66,0.045256346,0.33047852,0.9361035,374,"2022-12-09T11:21:58.495Z"
70,0.07397461,0.19473633,0.9729956,379,"2022-12-09T11:22:59.057Z"
60,0.104575194,0.219729,0.9653589,378,"2022-12-09T11:23:59.619Z"
81,-0.65000486,0.40769777,-0.60178953,376,"2022-12-09T11:25:00.181Z"
64,0.06991455,0.35795897,0.9106665,351,"2022-12-09T11:26:00.641Z"
64,0.030422363,0.09986572,0.97493654,364,"2022-12-09T11:27:01.185Z"
65,0.40783203,0.004111328,0.90680176,360,"2022-12-09T11:28:01.748Z"
76,0.33806884,0.88342774,-0.29057616,360,"2022-12-09T11:29:02.310Z"
76,0.41990235,0.11280762,0.8989087,366,"2022-12-09T11:30:02.854Z"
82,-0.0074487305,0.23144776,0.95142335,353,"2022-12-09T11:31:03.348Z"
79,-0.018950196,0.32952392,0.92320067,356,"2022-12-09T11:32:03.893Z"
65,-0.061462402,0.310542,0.92851317,359,"2022-12-09T11:33:04.455Z"
82,0.26441652,0.4189331,0.86368406,359,"2022-12-09T11:34:05.017Z"
77,0.19147705,0.5034082,0.8240015,363,"2022-12-09T11:35:05.579Z"
79,0.114104,0.44542235,0.86134523,360,"2022-12-09T11:36:06.124Z"
84,-0.23877686,0.4343115,0.85299563,366,"2022-12-09T11:37:06.686Z"
77,0.022780761,0.5358081,0.83294433,371,"2022-12-09T11:38:07.248Z"
80,0.2957886,0.7745996,-0.561355,365,"2022-12-09T11:39:07.810Z"
51,-0.051574707,0.7982031,-0.39885253,365,"2022-12-09T11:40:08.372Z"
63,-0.51225585,0.7281665,-0.17262451,370,"2022-12-09T11:41:08.935Z"
64,-0.09574219,1.001084,-0.022216797,372,"2022-12-09T11:42:09.497Z"
81,0.61786866,0.4855469,0.4619995,369,"2022-12-09T11:43:10.059Z"
98,0.48077148,-0.20161133,0.8507129,367,"2022-12-09T11:44:10.621Z"
105,-0.14294189,0.9670825,-0.098947756,340,"2022-12-09T11:45:11.184Z"
97,0.9932959,0.026652832,0.26004884,334,"2022-12-09T11:46:11.746Z"
101,0.9904175,0.5846167,0.21690185,328,"2022-12-09T11:47:12.308Z"
97,1.1853442,0.36248046,0.09442383,321,"2022-12-09T11:48:12.870Z"
75,1.1929102,0.35342774,0.081191406,318,"2022-12-09T11:49:13.433Z"
81,1.0686694,0.35774902,0.12686524,313,"2022-12-09T11:50:13.995Z"
72,-0.31026122,0.9448999,0.057873536,307,"2022-12-09T11:51:14.557Z"
64,-0.2243335,0.8207275,0.4805249,304,"2022-12-09T11:52:15.119Z"
78,0.7276416,0.43559083,0.5610913,300,"2022-12-09T11:53:15.681Z"
76,0.5650659,0.7166626,0.41324952,295,"2022-12-09T11:54:16.244Z"
84,0.7591089,0.65024656,0.12483154,292,"2022-12-09T11:55:16.806Z"
78,0.5478491,0.5503589,0.59900635,289,"2022-12-09T11:56:17.368Z"
92,0.7252295,0.43186525,0.5697754,286,"2022-12-09T11:57:17.930Z"
110,0.7259277,0.21639892,0.66745114,274,"2022-12-09T11:58:18.492Z"
69,0.71162844,0.50734377,0.47628173,278,"2022-12-09T11:59:19.055Z"
93,0.8070117,0.55500734,0.24409668,278,"2022-12-09T12:00:19.617Z"
121,0.7326074,0.22411865,0.6512378,273,"2022-12-09T12:01:20.179Z"
132,0.6890381,0.47522217,0.5787012,272,"2022-12-09T12:02:20.741Z"
122,0.6758203,0.5810083,0.42618653,288,"2022-12-09T12:03:21.303Z"
131,0.7246118,0.5282129,0.4559204,287,"2022-12-09T12:04:21.866Z"
116,0.6881397,0.54800296,0.45800537,284,"2022-12-09T12:05:22.428Z"
109,0.6900635,0.5681372,0.4603247,284,"2022-12-09T12:06:22.990Z"
116,0.6773804,0.5637256,0.46765625,283,"2022-12-09T12:07:23.552Z"
124,0.65391845,0.58460206,0.4782666,280,"2022-12-09T12:08:24.098Z"
94,-0.276875,0.8416626,0.4213379,280,"2022-12-09T12:09:24.660Z"
75,-0.57494384,0.47921875,0.459209,276,"2022-12-09T12:10:25.222Z"
88,0.84384274,0.57979006,0.16152832,277,"2022-12-09T12:11:25.785Z"
85,-0.017919922,0.8149341,0.5514502,275,"2022-12-09T12:12:26.347Z"
83,-0.3065039,0.9180908,0.10867432,276,"2022-12-09T12:13:26.909Z"
80,0.8754028,0.4637256,0.014641114,274,"2022-12-09T12:14:27.471Z"
88,0.45004883,0.84537107,0.31166258,272,"2022-12-09T12:15:28.033Z"
85,0.32310304,0.6449414,0.6431201,268,"2022-12-09T12:16:28.596Z"
86,0.59900635,0.73691404,0.318396,276,"2022-12-09T12:17:29.158Z"
83,-0.23981202,0.899292,-0.37679198,275,"2022-12-09T12:18:29.720Z"
82,0.99167967,0.2164624,0.06778076,278,"2022-12-09T12:19:30.282Z"
65,0.98646486,0.23676026,0.070410155,279,"2022-12-09T12:20:30.844Z"
76,0.20942871,0.94521976,0.016003419,279,"2022-12-09T12:21:31.407Z"
103,0.7746753,0.41138184,0.49286866,279,"2022-12-09T12:22:31.969Z"
74,0.73578614,0.46822265,0.50212157,280,"2022-12-09T12:23:32.531Z"
101,0.7705835,0.5351636,0.36612794,279,"2022-12-09T12:24:33.094Z"
81,0.8933032,0.1313086,0.49238038,279,"2022-12-09T12:25:33.656Z"
109,0.71365476,0.45080078,0.5246509,281,"2022-12-09T12:26:34.218Z"
97,1.1768823,0.38209715,0.07779297,280,"2022-12-09T12:27:34.780Z"
95,0.68084717,0.7553491,0.05664795,278,"2022-12-09T12:28:35.342Z"
108,0.91060305,0.12871094,-0.21672364,267,"2022-12-09T12:29:35.907Z"
112,0.22669922,0.65651613,0.33350587,267,"2022-12-09T12:30:36.467Z"
105,0.9085718,0.45432618,0.13243164,268,"2022-12-09T12:31:37.029Z"
86,-0.20047364,0.94687986,-0.22273682,267,"2022-12-09T12:32:37.591Z"
56,-0.34222656,0.52954346,0.7248901,266,"2022-12-09T12:33:38.212Z"
76,-0.016467284,0.95164794,0.26768798,280,"2022-12-09T12:34:38.774Z"
85,0.06778809,0.8636865,0.46422362,289,"2022-12-09T12:35:39.336Z"
89,0.93414795,-0.38835448,-0.1510962,294,"2022-12-09T12:36:39.898Z"
62,0.64648926,0.7012598,-0.33012694,295,"2022-12-09T12:37:42.902Z"
85,0.3743457,0.56581545,0.671123,284,"2022-12-09T12:38:43.418Z"
93,0.088044435,0.6427832,0.6925708,284,"2022-12-09T12:39:43.980Z"
92,0.27343017,0.61595947,-0.7506567,282,"2022-12-09T12:40:44.542Z"
70,-0.16487549,0.8095581,0.48656493,283,"2022-12-09T12:41:45.089Z"
115,0.642561,0.81560546,0.20797852,279,"2022-12-09T12:42:45.637Z"
136,0.74646974,0.7064868,0.14942871,275,"2022-12-09T12:43:46.199Z"
113,-0.10802978,0.9385278,-0.27199218,274,"2022-12-09T12:44:46.761Z"
92,-0.06855957,0.9868823,0.033063963,276,"2022-12-09T12:45:47.323Z"
78,-0.25850585,0.94831055,0.08198974,277,"2022-12-09T12:46:47.885Z"
79,0.9996948,0.23059815,0.14255127,276,"2022-12-09T12:47:48.448Z"
84,1.1320239,0.16248535,0.23435302,276,"2022-12-09T12:48:49.010Z"
105,0.91142577,0.14226562,0.16773194,275,"2022-12-09T12:49:49.572Z"
107,0.9960693,0.17135498,0.44164795,275,"2022-12-09T12:50:50.135Z"
71,0.51067626,0.83010983,0.1227417,275,"2022-12-09T12:51:50.697Z"
90,0.7242163,0.3420874,0.28101075,273,"2022-12-09T12:52:51.259Z"
99,0.7675342,0.59339845,0.39256835,275,"2022-12-09T12:53:51.821Z"
98,0.5574707,0.40955567,0.4215039,275,"2022-12-09T12:54:52.383Z"
108,0.66076416,0.5975562,0.35454345,277,"2022-12-09T12:55:52.946Z"
120,0.8370996,0.41426513,0.07208252,277,"2022-12-09T12:56:53.508Z"
107,-0.20700684,0.77590334,0.56053466,279,"2022-12-09T12:57:54.070Z"
109,0.3052759,0.8853613,0.16123047,281,"2022-12-09T12:58:54.632Z"
112,0.49611083,-0.09097412,0.9583447,284,"2022-12-09T12:59:55.194Z"
120,1.0102271,-0.0023925782,0.11316162,286,"2022-12-09T13:00:55.757Z"
123,0.50341797,0.16147462,0.8555908,289,"2022-12-09T13:01:56.319Z"
116,0.32973143,0.24134034,0.90868896,288,"2022-12-09T13:02:56.866Z"
96,-0.0188208,0.9751172,-0.19930664,285,"2022-12-09T13:03:57.428Z"
113,0.19328125,0.3103467,0.81940675,283,"2022-12-09T13:04:57.990Z"
101,1.0125611,-0.015458984,0.08415039,287,"2022-12-09T13:05:58.553Z"
112,-0.056550294,0.9858594,-0.10694092,289,"2022-12-09T13:06:59.115Z"
99,-0.22384033,0.96110594,-0.05897217,289,"2022-12-09T13:07:59.677Z"
87,0.07085449,0.9853052,0.08248779,287,"2022-12-09T13:09:00.239Z"
101,0.36941162,0.011540527,0.874751,288,"2022-12-09T13:10:00.802Z"
104,1.0014893,-0.076801755,0.17033936,291,"2022-12-09T13:11:01.364Z"
111,-0.3898242,0.5510962,0.58693606,292,"2022-12-09T13:12:01.926Z"
102,0.09327149,0.6729834,-0.744104,290,"2022-12-09T13:13:02.488Z"
95,0.94792724,0.29232666,0.21640626,290,"2022-12-09T13:14:03.050Z"
111,0.42800048,0.15143798,0.8214502,288,"2022-12-09T13:15:03.613Z"
102,1.0064819,-0.022304688,0.09699951,291,"2022-12-09T13:16:04.175Z"
103,0.9828369,0.3402368,0.03829346,293,"2022-12-09T13:17:04.737Z"
90,0.3399707,0.49939698,0.78945804,291,"2022-12-09T13:18:05.299Z"
83,0.42604735,0.80363524,0.23909912,295,"2022-12-09T13:19:05.861Z"
107,0.61016357,-0.23324463,0.771958,293,"2022-12-09T13:20:06.423Z"
95,0.9942529,-0.122241214,0.16200684,295,"2022-12-09T13:21:06.986Z"
120,0.93819094,0.27810058,0.26720458,296,"2022-12-09T13:22:07.548Z"
104,-0.042019043,0.98288816,-0.025063477,293,"2022-12-09T13:23:08.110Z"
100,0.037233885,0.9400757,-0.35178956,293,"2022-12-09T13:24:08.672Z"
128,0.603772,-0.09727539,0.8670044,292,"2022-12-09T13:25:09.234Z"
117,0.99464846,-0.0643335,0.19243409,294,"2022-12-09T13:26:09.797Z"
120,0.11723389,0.9324878,-0.31530517,296,"2022-12-09T13:27:10.359Z"
125,0.9756543,0.33151856,0.34025392,294,"2022-12-09T13:28:10.921Z"
116,0.7787061,0.37358153,-0.49528322,295,"2022-12-09T13:29:11.483Z"
122,0.93537354,0.3223535,0.29668212,295,"2022-12-09T13:30:12.045Z"
121,0.9830884,0.3780127,0.20772949,295,"2022-12-09T13:31:12.608Z"
122,0.2779126,0.84044677,0.29643068,293,"2022-12-09T13:32:13.155Z"
85,-0.09352051,0.83394533,0.52479494,292,"2022-12-09T13:33:13.717Z"
76,0.12082031,0.96315676,0.19950683,292,"2022-12-09T13:34:14.280Z"
77,0.02083252,0.98980224,0.0940625,297,"2022-12-09T13:35:14.841Z"
82,-0.03552002,0.77854735,-0.63994384,303,"2022-12-09T13:36:15.404Z"
98,0.9436719,-0.03723877,0.27198973,303,"2022-12-09T13:37:15.966Z"
94,-0.69901365,-0.40480956,0.061125487,301,"2022-12-09T13:38:16.528Z"
111,0.04841797,-0.8655591,0.4610376,301,"2022-12-09T13:39:17.090Z"
95,-0.22987793,0.9470068,0.15306397,300,"2022-12-09T13:40:17.652Z"
86,-0.032770995,0.95177,-0.18858398,298,"2022-12-09T13:41:18.215Z"
104,-0.44834474,-0.8000293,0.075827636,301,"2022-12-09T13:42:18.777Z"
121,-0.49325195,-0.68416995,0.17731689,301,"2022-12-09T13:43:19.339Z"
114,0.71808106,0.5255298,0.46729982,301,"2022-12-09T13:44:19.901Z"
82,-0.12525147,0.94700193,-0.27959472,300,"2022-12-09T13:45:20.463Z"
97,-0.09629883,0.96711916,0.21349122,303,"2022-12-09T13:46:21.026Z"
102,-0.060739744,-0.9626685,-0.030229492,303,"2022-12-09T13:47:21.588Z"
124,-0.57049805,-0.5684082,0.22288574,304,"2022-12-09T13:48:22.150Z"
131,1.0393945,0.034804687,0.032299805,306,"2022-12-09T13:49:22.712Z"
101,-0.25495362,0.9234619,0.21907715,304,"2022-12-09T13:50:23.274Z"
92,0.9363818,0.38096678,0.1244873,302,"2022-12-09T13:51:23.837Z"
84,0.892771,0.5100928,0.2987964,303,"2022-12-09T13:52:24.399Z"
98,0.8527344,0.49461183,0.21454833,302,"2022-12-09T13:53:24.961Z"
101,1.050586,0.3087207,0.20247315,302,"2022-12-09T13:54:25.523Z"
106,0.8268579,0.26840577,0.38992187,301,"2022-12-09T13:55:26.084Z"
62,1.0564746,0.5395508,-0.091801755,270,"2022-12-09T13:59:38.886Z"
83,0.42079103,0.82271,0.37415284,287,"2022-12-09T14:00:39.448Z"
91,0.43987793,0.8099145,-0.36328858,293,"2022-12-09T14:01:40.010Z"
101,-0.66987306,0.08425537,0.49906495,296,"2022-12-09T14:02:40.573Z"
88,0.82435304,0.40174562,0.19399902,297,"2022-12-09T14:03:41.120Z"
77,-0.16031982,0.9679053,0.11394287,299,"2022-12-09T14:04:41.682Z"
77,-0.33504638,0.8541162,-0.38097167,297,"2022-12-09T14:05:42.244Z"
78,0.7336743,0.63631105,0.07841065,295,"2022-12-09T14:06:42.806Z"
89,0.93667483,0.37606934,0.073098145,298,"2022-12-09T14:07:43.369Z"
93,1.1512696,0.4260449,0.19599365,299,"2022-12-09T14:08:43.931Z"
95,1.0886939,0.35800537,0.14429931,300,"2022-12-09T14:09:44.493Z"
90,1.0777271,0.39027345,0.1525415,298,"2022-12-09T14:10:45.055Z"
93,1.1189356,0.36124024,0.12802246,296,"2022-12-09T14:11:45.617Z"
90,-0.0024487304,0.5748291,0.6610498,294,"2022-12-09T14:12:46.180Z"
94,-0.3142285,0.6376147,0.3982544,293,"2022-12-09T14:13:46.742Z"
81,-0.11400147,0.8127417,-0.5389502,291,"2022-12-09T14:14:47.304Z"
84,0.64458007,0.430625,0.65281004,294,"2022-12-09T14:15:47.866Z"
85,-0.5966162,0.50854737,-0.6191406,296,"2022-12-09T14:16:48.428Z"
105,-0.071083985,0.8682422,-0.20611328,299,"2022-12-09T14:17:48.990Z"
96,0.36418456,0.5114966,0.76603514,301,"2022-12-09T14:18:49.553Z"
97,0.29829833,0.70818114,0.63408446,302,"2022-12-09T14:19:50.115Z"
85,0.37898925,0.6087451,0.6893555,303,"2022-12-09T14:20:50.677Z"
79,1.0594604,0.32154053,0.22055665,302,"2022-12-09T14:21:51.239Z"
87,0.3586841,0.6536841,0.6241089,300,"2022-12-09T14:22:51.802Z"
81,0.29949218,0.8429102,0.4427417,299,"2022-12-09T14:23:52.364Z"
84,0.011970215,0.5001416,0.8590796,298,"2022-12-09T14:24:52.926Z"
81,0.37955812,0.5726709,0.7213452,298,"2022-12-09T14:25:53.488Z"
73,0.15413818,0.787666,-0.09041016,298,"2022-12-09T14:26:54.050Z"
76,0.43243408,0.70704836,0.3696631,298,"2022-12-09T14:27:54.613Z"
86,0.36676025,0.7538672,0.13262695,298,"2022-12-09T14:28:55.175Z"
97,0.9865039,0.44685546,0.20985352,301,"2022-12-09T14:29:55.737Z"
91,0.14,0.8244629,0.39908692,302,"2022-12-09T14:30:56.299Z"
71,-0.12934083,0.98085696,0.023063965,304,"2022-12-09T14:31:56.861Z"
68,-0.3697632,0.7564917,-0.21273193,304,"2022-12-09T14:32:57.423Z"
59,-0.08420899,0.9866016,-0.033745117,303,"2022-12-09T14:33:57.986Z"
57,-0.012473145,0.9040381,0.3994995,302,"2022-12-09T14:34:58.548Z"
56,-0.017001953,0.9291162,0.33866212,301,"2022-12-09T14:35:59.110Z"
57,-0.079802245,0.9873706,-0.047663573,298,"2022-12-09T14:36:59.672Z"
52,-0.10236328,0.9804053,-0.105979,297,"2022-12-09T14:38:00.234Z"
55,-0.09296875,0.98618895,-0.035388183,297,"2022-12-09T14:39:00.797Z"
56,-0.09388916,0.9844629,-0.074370116,298,"2022-12-09T14:40:01.359Z"
55,-0.055915527,0.9884937,0.023613282,298,"2022-12-09T14:41:01.921Z"
62,0.07726074,0.6007568,0.7799414,298,"2022-12-09T14:42:02.483Z"
56,0.07947022,0.59397215,0.7850195,299,"2022-12-09T14:43:03.045Z"
53,0.07897949,0.5699414,0.8029175,299,"2022-12-09T14:44:03.607Z"
60,0.07903565,0.61973876,0.7652051,298,"2022-12-09T14:45:04.170Z"
56,-0.23191406,0.95634764,-0.094838865,296,"2022-12-09T14:46:04.732Z"
58,-0.19250733,0.96566164,-0.08771972,295,"2022-12-09T14:47:05.294Z"
56,-0.21173096,0.9541162,-0.16649415,294,"2022-12-09T14:48:05.856Z"
57,-0.20234619,0.9540601,-0.18083252,294,"2022-12-09T14:49:06.418Z"
70,-0.42487305,0.80000734,0.28881103,293,"2022-12-09T14:50:06.981Z"
73,0.20956543,0.63579834,0.7235718,294,"2022-12-09T14:51:07.543Z"
69,-0.23378174,0.957168,-0.029030763,293,"2022-12-09T14:52:08.105Z"
75,-0.25442627,0.86972654,0.49799562,293,"2022-12-09T14:53:08.667Z"
74,-0.2566211,0.8967749,0.31230223,293,"2022-12-09T14:54:09.229Z"
71,-0.29910645,0.74066895,0.52601564,294,"2022-12-09T14:55:09.792Z"
79,-0.3981787,0.90264404,-0.063239746,295,"2022-12-09T14:56:10.354Z"
72,0.3498877,0.34480226,0.8659009,296,"2022-12-09T14:57:10.916Z"
78,-0.31630126,0.9339673,-0.071518555,296,"2022-12-09T14:58:11.478Z"
71,-0.34226564,0.9245044,0.045959473,296,"2022-12-09T14:59:12.041Z"
68,-0.34277344,0.92188233,-0.07543701,297,"2022-12-09T15:00:12.603Z"
73,-0.17070068,0.02230957,0.6274414,296,"2022-12-09T15:01:13.165Z"
72,-0.41920653,0.891543,0.022053223,297,"2022-12-09T15:02:13.727Z"
65,-0.42961913,0.88725096,-0.03409668,298,"2022-12-09T15:03:14.289Z"
79,0.7222412,0.2957251,-0.63203615,299,"2022-12-09T15:04:14.851Z"
80,1.0721924,0.45544678,0.13217285,297,"2022-12-09T15:05:15.414Z"
118,1.1222388,0.47806397,0.019499512,297,"2022-12-09T15:06:15.976Z"
113,1.0979004,0.46874267,0.13123779,295,"2022-12-09T15:07:16.538Z"
97,1.0763257,0.4177002,0.13591309,294,"2022-12-09T15:08:17.100Z"
112,1.0878906,0.4786914,0.12785156,295,"2022-12-09T15:09:17.662Z"
98,0.41602296,0.87901366,-0.0052246093,295,"2022-12-09T15:10:18.225Z"
76,-0.15054443,0.5458301,-0.82897216,294,"2022-12-09T15:11:18.787Z"
78,-0.26681885,0.9071631,-0.29379395,295,"2022-12-09T15:12:19.349Z"
90,0.9321704,0.49541014,0.108125,295,"2022-12-09T15:13:19.911Z"
88,0.7803662,0.26595458,0.48503417,296,"2022-12-09T15:14:20.473Z"
92,0.0024243165,0.9773853,0.06359863,296,"2022-12-09T15:15:21.035Z"
91,0.19579345,0.962168,0.0335083,297,"2022-12-09T15:16:21.598Z"
94,0.6475391,0.76822263,-0.067304686,297,"2022-12-09T15:17:22.160Z"
77,-0.24262208,0.92622316,-0.25478026,298,"2022-12-09T15:18:22.722Z"
90,0.62749755,0.63034177,-0.0980957,298,"2022-12-09T15:19:23.284Z"
93,0.8570703,0.49031007,0.33808106,298,"2022-12-09T15:20:23.846Z"
93,0.88281494,0.50801027,0.18729736,299,"2022-12-09T15:21:24.409Z"
88,0.81226075,0.6153491,0.097404785,297,"2022-12-09T15:22:24.971Z"
70,-0.14821777,0.97154295,-0.12616943,296,"2022-12-09T15:23:25.533Z"
78,-0.5213184,0.7736084,0.28644043,294,"2022-12-09T15:24:26.095Z"
73,-0.017919922,0.26692382,0.9025879,293,"2022-12-09T15:25:26.657Z"
75,-0.08012451,0.43137208,0.83054197,293,"2022-12-09T15:26:27.220Z"
83,0.22915527,0.91813964,0.20499755,296,"2022-12-09T15:27:27.782Z"
97,0.5326953,0.81460935,0.09955811,296,"2022-12-09T15:28:28.344Z"
126,0.66116697,0.3615259,0.60670656,293,"2022-12-09T15:29:28.906Z"
123,0.63271,0.46520263,0.5792578,288,"2022-12-09T15:30:29.468Z"
99,-0.29288575,0.94011474,-0.013134765,286,"2022-12-09T15:31:30.031Z"
128,0.68406737,0.40386963,0.6309888,282,"2022-12-09T15:32:30.593Z"
112,0.76854736,0.38494384,0.5645801,279,"2022-12-09T15:33:31.155Z"
113,0.598938,0.6599341,0.45772216,274,"2022-12-09T15:34:31.717Z"
118,0.64255613,0.5116675,0.57399416,270,"2022-12-09T15:35:32.280Z"
126,0.70209473,0.4514551,0.5725586,266,"2022-12-09T15:36:32.842Z"
104,0.85660154,0.30695558,0.45665038,262,"2022-12-09T15:37:33.404Z"
118,0.6562207,0.49358642,0.56663084,260,"2022-12-09T15:38:33.966Z"
122,0.6786499,0.43705568,0.5795508,257,"2022-12-09T15:39:34.528Z"
137,0.30985352,1.0332763,0.38577148,256,"2022-12-09T15:40:35.091Z"
116,0.02401123,0.8838916,-0.25753662,255,"2022-12-09T15:41:35.653Z"
93,-0.07453369,0.89804685,0.2659912,257,"2022-12-09T15:42:36.215Z"
84,0.8881836,0.45608643,-0.16046876,258,"2022-12-09T15:43:36.777Z"
91,-0.35988036,0.8571802,-0.2552637,259,"2022-12-09T15:44:37.339Z"
94,0.04603027,0.7098706,0.6129785,263,"2022-12-09T15:45:37.902Z"
82,-0.9602441,0.12392334,0.16829833,266,"2022-12-09T15:46:38.464Z"
91,-0.30966064,0.92814696,-0.14803955,268,"2022-12-09T15:47:39.026Z"
75,-0.2381958,0.9563501,-0.08999267,273,"2022-12-09T15:48:39.588Z"
73,-0.9800342,0.07859131,0.0166333,279,"2022-12-09T15:49:40.151Z"
82,-0.2644043,0.939563,-0.1656958,287,"2022-12-09T15:50:40.713Z"
77,-0.84604734,0.10776367,0.47734374,291,"2022-12-09T15:51:41.275Z"
80,0.034951173,0.806499,0.5058228,297,"2022-12-09T15:52:41.837Z"
67,-0.13107422,0.939375,0.26337892,299,"2022-12-09T15:53:42.399Z"
63,-0.24832031,0.7480322,0.5834277,303,"2022-12-09T15:54:42.962Z"
68,0.01772705,0.71855223,0.5365576,305,"2022-12-09T15:55:43.524Z"
62,0.035285644,0.51688474,0.83947265,308,"2022-12-09T15:56:44.086Z"
67,-0.15707275,0.6618262,0.7163379,310,"2022-12-09T15:57:44.648Z"
66,0.049470216,0.57062745,0.8028906,316,"2022-12-09T15:58:45.210Z"
66,-0.08602051,0.6889258,0.6972363,318,"2022-12-09T15:59:45.772Z"
64,-0.17233154,0.606167,0.75213623,322,"2022-12-09T16:00:46.335Z"
64,-0.15644775,0.39266846,0.8835596,327,"2022-12-09T16:01:46.897Z"
61,-0.14999756,0.59381837,0.7729712,328,"2022-12-09T16:02:47.459Z"
60,0.04883545,0.5558765,0.8128003,328,"2022-12-09T16:03:48.021Z"
64,0.02833496,0.5269702,0.83262205,328,"2022-12-09T16:04:48.583Z"
63,-0.13952637,0.64777833,0.72618896,329,"2022-12-09T16:05:49.146Z"
58,-0.9267334,-0.14953858,0.28588134,332,"2022-12-09T16:06:49.708Z"
60,-0.3501001,0.6263867,0.6655078,333,"2022-12-09T16:07:50.270Z"
64,-0.92812014,0.092629395,0.30066162,336,"2022-12-09T16:08:50.832Z"
61,-0.19996093,0.48210937,0.83190185,335,"2022-12-09T16:09:51.394Z"
62,-0.22361328,0.9444995,0.16999511,338,"2022-12-09T16:10:51.956Z"
66,-0.13449219,0.96224123,0.16908936,338,"2022-12-09T16:11:52.519Z"
64,-0.12256836,0.9496094,0.23869874,340,"2022-12-09T16:12:53.081Z"
66,-0.16008545,0.7630005,0.5946045,341,"2022-12-09T16:13:53.643Z"
61,-0.9202734,0.34606934,0.003527832,340,"2022-12-09T16:14:54.205Z"
61,-0.8956543,0.20867431,0.33266845,341,"2022-12-09T16:15:54.767Z"
62,-0.90312254,0.17448242,0.33503905,341,"2022-12-09T16:16:55.329Z"
69,-0.1305127,0.7232788,0.6523193,342,"2022-12-09T16:17:55.891Z"
65,-0.15861817,0.7129126,0.6579639,343,"2022-12-09T16:18:56.454Z"
71,-0.16648193,0.94662356,0.21919434,343,"2022-12-09T16:19:57.016Z"
69,-0.13680664,0.83056885,0.18328857,343,"2022-12-09T16:20:57.578Z"
60,-0.20284668,0.67586917,0.6816235,342,"2022-12-09T16:21:58.140Z"
63,-0.22885254,0.32595947,0.898689,338,"2022-12-09T16:22:58.702Z"
69,-0.06859619,0.49273437,0.8459961,342,"2022-12-09T16:23:59.264Z"
67,-0.079829104,0.7022485,0.68643796,343,"2022-12-09T16:24:59.827Z"
60,-0.008962402,0.65973145,0.7309717,344,"2022-12-09T16:26:00.389Z"
61,-0.90622556,0.3671924,-0.11596192,344,"2022-12-09T16:27:00.951Z"
60,-0.8494287,0.46527588,0.14572755,344,"2022-12-09T16:28:01.513Z"
62,-0.893147,0.3555835,-0.22357911,344,"2022-12-09T16:29:02.075Z"
57,-0.029790038,0.91767335,0.35671142,344,"2022-12-09T16:30:02.637Z"
60,-0.9334204,0.3070239,-0.030270996,344,"2022-12-09T16:31:03.199Z"
60,-0.91917723,0.32320067,-0.16335693,344,"2022-12-09T16:32:03.762Z"
65,-0.045007326,0.56067383,0.8102954,344,"2022-12-09T16:33:04.324Z"
62,-0.06431153,0.98793703,0.040424805,344,"2022-12-09T16:34:04.886Z"
69,-0.90547365,0.37383544,-0.097368166,344,"2022-12-09T16:35:05.448Z"
65,-0.8619702,0.3404126,-0.3453247,344,"2022-12-09T16:36:06.010Z"
59,-0.39462158,0.88938963,-0.22941406,344,"2022-12-09T16:37:06.573Z"
62,-0.9336987,0.04572998,0.2633667,345,"2022-12-09T16:38:07.135Z"
57,-0.14473145,0.6261133,0.7406494,345,"2022-12-09T16:39:07.697Z"
62,-0.05090332,0.6466162,0.73979247,345,"2022-12-09T16:40:08.259Z"
61,-0.91489255,0.041374512,0.3511914,345,"2022-12-09T16:41:08.821Z"
62,-0.9185376,0.17417969,0.29161376,345,"2022-12-09T16:42:09.383Z"
60,-0.8144946,0.11253906,0.5293726,346,"2022-12-09T16:43:09.945Z"
58,-0.95804197,0.090805665,0.19420166,346,"2022-12-09T16:44:10.493Z"
59,-0.8535742,-0.16502441,0.45782715,346,"2022-12-09T16:45:11.055Z"
64,-0.10735596,0.5847876,0.783147,345,"2022-12-09T16:46:11.617Z"
78,-0.10567383,0.5873413,0.7814819,344,"2022-12-09T16:47:12.179Z"
80,-0.1377832,0.59238523,0.7715405,344,"2022-12-09T16:48:12.741Z"
80,-0.12714599,0.58179444,0.7829663,344,"2022-12-09T16:49:13.303Z"
85,-0.07156982,0.61551267,0.7650244,344,"2022-12-09T16:50:13.866Z"
71,-0.101130374,0.62263674,0.7546728,344,"2022-12-09T16:51:14.428Z"
77,-0.10957275,0.60508054,0.7671411,344,"2022-12-09T16:52:14.990Z"
70,-0.09811768,0.5278882,0.8249634,343,"2022-12-09T16:53:15.551Z"
63,-0.13465089,0.5066553,0.8305298,343,"2022-12-09T16:54:16.114Z"
61,0.02345459,0.649646,0.74240965,342,"2022-12-09T16:55:16.676Z"
65,-0.07310059,0.6068164,0.7732227,343,"2022-12-09T16:56:17.239Z"
57,-0.11116455,0.6069946,0.7651538,344,"2022-12-09T16:57:17.801Z"
64,-0.06254883,0.5859741,0.78582275,343,"2022-12-09T16:58:18.363Z"
60,-0.07810791,0.6569214,0.72759765,342,"2022-12-09T16:59:18.925Z"
66,-0.33518067,0.9283813,-0.03869385,343,"2022-12-09T17:00:19.487Z"
79,0.9127783,0.4296875,0.0891333,341,"2022-12-09T17:01:20.049Z"
90,0.85541016,0.1173999,0.28768554,340,"2022-12-09T17:02:20.612Z"
99,0.09973877,0.9772119,0.00091308594,340,"2022-12-09T17:03:21.173Z"
95,0.91413087,0.31150877,0.19593506,339,"2022-12-09T17:04:21.736Z"
81,-0.30735108,0.87935305,0.41940674,338,"2022-12-09T17:05:22.298Z"
90,1.1420141,0.4020288,0.13537109,337,"2022-12-09T17:06:22.860Z"
97,1.1606177,0.39842772,0.12919922,335,"2022-12-09T17:07:23.422Z"
85,0.41135743,0.89854246,0.1550708,330,"2022-12-09T17:08:23.984Z"
69,0.39026123,0.86506593,0.21900634,325,"2022-12-09T17:09:24.547Z"
73,-0.19765624,0.9915088,-0.030976562,323,"2022-12-09T17:10:25.109Z"
65,0.9484668,0.34192628,0.10561279,320,"2022-12-09T17:11:25.671Z"
62,-0.27258056,0.9123999,0.14231934,318,"2022-12-09T17:12:26.233Z"
58,0.60587645,0.6827344,0.1784375,316,"2022-12-09T17:13:26.796Z"
68,0.5599145,0.68803465,-0.47719237,314,"2022-12-09T17:14:27.357Z"
71,0.6302173,0.5148071,0.5846094,313,"2022-12-09T17:15:27.920Z"
72,0.8352588,0.48477784,0.194917,314,"2022-12-09T17:16:28.482Z"
70,0.8865015,0.5947998,0.10511231,315,"2022-12-09T17:17:29.044Z"
61,-0.47185057,0.8591455,0.07185791,317,"2022-12-09T17:18:29.606Z"
73,-0.28402588,0.93955076,-0.03489746,319,"2022-12-09T17:19:30.168Z"
71,0.12571777,0.79703856,-0.57625735,321,"2022-12-09T17:20:30.730Z"
59,-0.08183105,0.9058789,0.3805298,321,"2022-12-09T17:21:31.293Z"
63,-0.17012696,0.8879199,0.38919923,323,"2022-12-09T17:22:31.840Z"
72,0.35168946,0.91193604,-0.17871338,322,"2022-12-09T17:23:32.402Z"
76,0.3479541,0.8086841,-0.48054686,323,"2022-12-09T17:24:32.964Z"
89,0.13135742,0.5054321,0.8221777,320,"2022-12-09T17:25:33.527Z"
94,1.0378711,0.4165625,0.12086426,320,"2022-12-09T17:26:34.089Z"
116,0.8309277,0.5884253,0.105737306,320,"2022-12-09T17:27:34.651Z"
128,1.1069287,0.40444335,0.16489014,317,"2022-12-09T17:28:35.213Z"
130,0.4035425,0.6990601,-0.28242433,312,"2022-12-09T17:29:35.775Z"
126,0.697312,0.4322046,0.57288086,309,"2022-12-09T17:30:36.337Z"
117,0.6626636,0.49760985,0.5581226,306,"2022-12-09T17:31:36.900Z"
111,0.6748877,0.4827783,0.53072757,304,"2022-12-09T17:32:37.462Z"
90,0.6889307,0.5138916,0.5224121,304,"2022-12-09T17:33:38.024Z"
107,0.73888427,0.41661376,0.5591162,302,"2022-12-09T17:34:38.586Z"
104,0.66666746,0.53105223,0.5198828,301,"2022-12-09T17:35:39.148Z"
99,0.06380859,0.873064,-0.002475586,300,"2022-12-09T17:36:39.710Z"
121,0.6752344,0.5023218,0.55375,299,"2022-12-09T17:37:40.258Z"
136,0.69647706,0.6606055,0.29848877,297,"2022-12-09T17:38:40.820Z"
125,0.6391187,0.5464551,0.52204835,290,"2022-12-09T17:39:41.382Z"
104,0.67091554,0.45447266,0.5635913,282,"2022-12-09T17:40:41.944Z"
97,0.6792944,0.48405275,0.5426294,274,"2022-12-09T17:41:42.507Z"
105,0.70793456,0.46440184,0.5527148,271,"2022-12-09T17:42:43.069Z"
99,0.49201173,0.6628467,0.5601562,265,"2022-12-09T17:43:43.631Z"
105,0.7100171,0.39678222,0.59575194,262,"2022-12-09T17:44:44.193Z"
90,-0.2713867,0.91276366,0.252688,259,"2022-12-09T17:45:44.756Z"
94,1.1761109,0.41770753,0.1693628,256,"2022-12-09T17:46:45.318Z"
84,-0.17259033,0.8457227,0.51553464,255,"2022-12-09T17:47:45.880Z"
99,-0.2894385,0.58455324,0.32841066,251,"2022-12-09T17:48:46.442Z"
124,0.70057374,0.534917,0.101374514,249,"2022-12-09T17:49:47.004Z"
118,0.8081177,0.58366454,0.06710693,251,"2022-12-09T17:50:47.567Z"
106,0.9325,0.18932861,0.23126954,251,"2022-12-09T17:51:48.129Z"
112,0.9489868,0.12971924,0.264458,252,"2022-12-09T17:52:48.691Z"
122,1.0040966,0.2053296,0.25016603,255,"2022-12-09T17:53:49.253Z"
104,0.8196118,0.5636499,0.16870606,258,"2022-12-09T17:54:49.816Z"
87,0.89288574,0.43212646,0.22802246,261,"2022-12-09T17:55:50.378Z"
93,0.843562,0.4724121,0.23973633,265,"2022-12-09T17:56:50.925Z"
80,0.6452368,0.7322022,0.22506347,271,"2022-12-09T17:57:51.487Z"
93,0.5810181,0.8097998,0.10006592,273,"2022-12-09T17:58:52.050Z"
81,0.92994875,0.36107177,0.24113037,277,"2022-12-09T17:59:52.612Z"
81,0.9376343,0.36552003,0.25072265,278,"2022-12-09T18:00:53.174Z"
106,0.94475585,0.06900391,0.2695532,280,"2022-12-09T18:01:53.736Z"
87,1.0290112,0.14353515,0.2319336,278,"2022-12-09T18:02:54.298Z"
107,0.88528806,0.48101318,0.18526855,277,"2022-12-09T18:03:54.861Z"
102,0.96688235,-0.03751709,0.29579103,277,"2022-12-09T18:04:55.423Z"
114,0.9231177,0.12368408,0.46686035,277,"2022-12-09T18:05:55.985Z"
114,0.6445874,0.6946997,0.22904296,277,"2022-12-09T18:06:56.547Z"
103,0.2868872,0.8613501,0.29560548,276,"2022-12-09T18:07:57.109Z"
109,0.8780127,0.4897656,0.053078614,277,"2022-12-09T18:08:57.672Z"
106,-0.19042724,0.9331128,0.2541748,280,"2022-12-09T18:09:58.234Z"
93,0.33114257,0.95927733,-0.010834961,281,"2022-12-09T18:10:58.796Z"
92,-0.63881594,-0.19119874,0.72096926,276,"2022-12-09T18:11:59.358Z"
74,-0.53291017,-0.2694873,0.78005373,278,"2022-12-09T18:12:59.920Z"
95,0.6093848,0.7930664,-0.02796875,280,"2022-12-09T18:14:00.483Z"
64,-0.18743896,0.9532666,-0.26872313,285,"2022-12-09T18:15:01.045Z"
64,0.95065427,0.086428225,0.3428955,287,"2022-12-09T18:16:01.607Z"
78,0.7053174,0.6872998,0.023618164,288,"2022-12-09T18:17:02.169Z"
78,0.944231,0.28065917,0.21113281,287,"2022-12-09T18:18:02.731Z"
70,0.5808179,0.76072997,0.3728491,287,"2022-12-09T18:19:03.294Z"
74,0.99198973,-0.10479492,-0.09211914,287,"2022-12-09T18:20:03.856Z"
84,1.0017017,-0.0089917,0.070437014,287,"2022-12-09T18:21:04.418Z"
81,-0.0077856444,0.697666,0.5820068,289,"2022-12-09T18:22:04.950Z"
86,0.9892188,0.381521,0.14360839,291,"2022-12-09T18:23:05.498Z"
90,-0.29341066,0.83104736,0.16715088,293,"2022-12-09T18:24:06.060Z"
99,0.4031714,0.8839624,0.24517089,296,"2022-12-09T18:25:06.622Z"
93,0.4317041,0.50227785,0.738374,300,"2022-12-09T18:26:07.184Z"
93,0.12629639,0.9043408,-0.42269775,305,"2022-12-09T18:27:07.732Z"
113,0.23513672,0.45453125,0.75435793,306,"2022-12-09T18:28:08.294Z"
116,0.49289307,0.82071286,0.13266602,309,"2022-12-09T18:29:08.856Z"
113,0.34010985,0.90878415,-0.25681153,311,"2022-12-09T18:30:09.418Z"
119,0.25804687,0.9417651,-0.15612304,311,"2022-12-09T18:31:09.981Z"
107,0.45946777,0.8585571,-0.1353418,312,"2022-12-09T18:32:10.543Z"
99,0.25760743,0.91481936,-0.16924073,313,"2022-12-09T18:33:11.105Z"
99,0.048081055,0.9487793,-0.29165527,313,"2022-12-09T18:34:11.667Z"
102,0.08009033,0.5061304,0.8393506,313,"2022-12-09T18:35:12.229Z"
97,0.60258055,0.7179639,0.10177002,313,"2022-12-09T18:36:12.792Z"
102,0.07689453,0.8962549,-0.44660157,314,"2022-12-09T18:37:13.354Z"
107,0.008105469,0.9576416,0.11199463,315,"2022-12-09T18:38:13.916Z"
101,-0.20516846,0.9323755,0.21472412,314,"2022-12-09T18:39:14.478Z"
107,-0.14284912,0.96562743,-0.11262207,316,"2022-12-09T18:40:15.040Z"
105,-0.10452148,0.9786206,0.001743164,318,"2022-12-09T18:41:15.603Z"
97,-0.13640624,0.86143553,-0.4470703,318,"2022-12-09T18:42:16.165Z"
96,0.032043457,0.8545703,0.39482176,318,"2022-12-09T18:43:16.727Z"
89,0.6208057,0.809834,-0.026035156,318,"2022-12-09T18:44:17.289Z"
106,0.04594238,0.80158204,0.54165286,319,"2022-12-09T18:45:17.851Z"
89,0.014008789,0.59810793,0.7818213,318,"2022-12-09T18:46:18.413Z"
82,-0.05303711,0.98809326,0.0030200195,319,"2022-12-09T18:47:18.976Z"
90,0.019760743,0.58964354,0.7911914,318,"2022-12-09T18:48:19.538Z"
86,0.025292968,0.9699072,-0.19423585,318,"2022-12-09T18:49:20.100Z"
91,0.11378418,0.7266113,0.66553956,318,"2022-12-09T18:50:20.662Z"
77,0.51730466,0.57340574,0.60230714,317,"2022-12-09T18:51:21.224Z"
83,-0.38158935,0.60358644,0.6460083,316,"2022-12-09T18:52:21.786Z"
95,-0.4240747,0.7687647,0.24421142,316,"2022-12-09T18:53:22.349Z"
102,0.08280029,0.5511768,0.79132813,317,"2022-12-09T18:54:22.911Z"
102,0.21640137,0.8987817,0.3634204,316,"2022-12-09T18:55:23.473Z"
100,-0.06001709,0.9825146,-0.02974121,317,"2022-12-09T18:56:24.035Z"
108,0.8319678,0.5331274,0.098825686,316,"2022-12-09T18:57:24.597Z"
114,0.026577149,0.85411376,-0.5271484,316,"2022-12-09T18:58:25.159Z"
105,0.56965333,0.71073484,0.4025708,314,"2022-12-09T18:59:25.722Z"
104,-0.09875976,0.8456201,-0.17041992,315,"2022-12-09T19:00:26.284Z"
90,0.12783203,0.5732471,0.74183595,316,"2022-12-09T19:01:26.846Z"
92,0.52490234,0.7534131,-0.42315674,315,"2022-12-09T19:02:27.408Z"
82,0.9461841,0.37452638,0.13000733,314,"2022-12-09T19:03:27.970Z"
85,-0.5609619,0.7473584,0.27693602,314,"2022-12-09T19:04:28.532Z"
71,0.9252148,0.40708742,0.13705811,314,"2022-12-09T19:05:29.095Z"
70,0.9951465,0.11177246,-0.33511475,314,"2022-12-09T19:06:29.657Z"
65,0.571438,0.82473147,-0.082993165,312,"2022-12-09T19:07:30.219Z"
76,0.93933594,0.06795898,-0.4189087,312,"2022-12-09T19:08:30.781Z"
81,-0.0077441405,0.9892041,-0.07411621,311,"2022-12-09T19:09:31.343Z"
76,-0.069880374,0.9422754,-0.31364745,311,"2022-12-09T19:10:31.906Z"
70,0.28355956,0.8216089,-0.3822046,310,"2022-12-09T19:11:32.468Z"
74,0.91620606,0.40307617,0.20610839,309,"2022-12-09T19:12:33.030Z"
71,0.28843263,0.91455567,-0.28705567,309,"2022-12-09T19:13:33.592Z"
65,0.26323974,0.9519873,-0.10623779,308,"2022-12-09T19:14:34.154Z"
72,0.55919677,0.6509204,-0.5769409,306,"2022-12-09T19:15:34.717Z"
107,0.08135498,0.9267456,-0.3289795,305,"2022-12-09T19:16:35.279Z"
95,0.3218335,0.2768042,0.89926267,304,"2022-12-09T19:17:35.841Z"
89,-0.08323486,0.80727786,0.120412596,306,"2022-12-09T19:18:36.403Z"
102,0.9010132,0.4576123,0.07503906,305,"2022-12-09T19:19:36.965Z"
87,0.16953857,0.8828931,-0.44720215,304,"2022-12-09T19:20:37.527Z"
100,0.5521973,0.8259668,-0.043129884,303,"2022-12-09T19:21:38.090Z"
103,-0.30172852,0.9327637,0.08926025,302,"2022-12-09T19:22:38.652Z"
61,-0.19948974,0.9027026,0.33368897,302,"2022-12-09T19:23:39.214Z"
58,-0.3918213,0.8489795,-0.32439697,302,"2022-12-09T19:24:39.776Z"
65,-0.3227783,0.9226294,0.120969236,301,"2022-12-09T19:25:40.338Z"
54,-0.32917482,0.71910644,0.57984376,301,"2022-12-09T19:26:40.900Z"
66,-0.2781665,0.7430273,0.5766406,300,"2022-12-09T19:27:41.463Z"
69,-0.00080566405,0.96225584,-0.2341748,300,"2022-12-09T19:28:42.025Z"
66,-0.6222632,0.7171948,-0.0071362304,299,"2022-12-09T19:29:42.587Z"
85,0.2890674,0.8904297,0.33470458,298,"2022-12-09T19:30:43.149Z"
86,-0.4756787,0.7223242,0.4596289,296,"2022-12-09T19:31:43.711Z"
57,-0.8795117,0.39113036,-0.21418945,294,"2022-12-09T19:32:44.274Z"
60,-0.87234616,0.31375,-0.3465039,295,"2022-12-09T19:33:44.836Z"
59,-0.90649414,0.36733153,-0.117353514,294,"2022-12-09T19:34:45.398Z"
60,-0.50757813,0.73584473,0.4034546,295,"2022-12-09T19:35:45.960Z"
57,-0.5410376,0.8172266,-0.14473876,295,"2022-12-09T19:36:46.522Z"
61,-0.47154784,0.86395997,-0.05982666,294,"2022-12-09T19:37:47.084Z"
72,0.09870605,0.9218042,0.25352296,294,"2022-12-09T19:38:47.647Z"
78,-0.067617185,0.8748828,0.295354,294,"2022-12-09T19:39:48.209Z"
77,-0.047248535,0.35103026,0.91236573,293,"2022-12-09T19:40:48.771Z"
83,-0.26215333,0.94756347,0.084143065,293,"2022-12-09T19:41:49.333Z"
58,-0.4386499,-0.34968507,0.80908936,292,"2022-12-09T19:42:49.896Z"
69,0.061555177,0.82368654,-0.4708789,292,"2022-12-09T19:43:50.458Z"
69,0.3018213,0.45633546,0.7596167,292,"2022-12-09T19:44:51.020Z"
57,0.45433837,0.15315919,0.88073,286,"2022-12-09T19:45:51.582Z"
61,-0.102736816,0.9308789,0.31065187,290,"2022-12-09T19:46:52.144Z"
49,-0.08524414,-0.3231299,0.9219043,292,"2022-12-09T19:47:52.707Z"
59,-0.08227539,0.9832202,0.049404297,294,"2022-12-09T19:48:53.269Z"
61,-0.047849122,0.9892749,0.011274414,295,"2022-12-09T19:49:53.831Z"
50,-0.030056152,0.96284425,0.22463378,295,"2022-12-09T19:50:54.393Z"
67,0.6496265,0.02244873,0.768313,292,"2022-12-09T19:51:54.955Z"
57,0.2939087,0.9413159,-0.16439453,291,"2022-12-09T19:52:55.518Z"
65,-0.14990723,0.94203126,-0.27012938,294,"2022-12-09T19:53:56.080Z"
52,-0.18771484,0.91026366,-0.34061524,294,"2022-12-09T19:54:56.642Z"
69,0.8494751,0.2607422,0.45803466,293,"2022-12-09T19:55:57.204Z"
75,0.07994873,0.8672192,-0.28443116,293,"2022-12-09T19:56:57.766Z"
76,0.70636475,0.7167871,0.068793945,292,"2022-12-09T19:57:58.328Z"
90,0.0940625,0.72943115,0.6598706,291,"2022-12-09T19:58:58.891Z"
91,-0.01291748,0.70334226,0.6198633,292,"2022-12-09T19:59:59.453Z"
91,0.21001464,0.93864256,-0.2504248,292,"2022-12-09T20:01:00.015Z"
90,0.33600587,0.63675535,0.6324048,291,"2022-12-09T20:02:00.577Z"
85,0.13922852,0.97199464,-0.009829101,290,"2022-12-09T20:03:01.139Z"
77,0.26667482,0.93133545,-0.16894042,289,"2022-12-09T20:04:01.702Z"
72,0.95719725,0.35958496,0.15450683,290,"2022-12-09T20:05:02.264Z"
70,0.20935303,0.9272632,0.3439575,290,"2022-12-09T20:06:02.826Z"
64,0.89441895,0.32236084,0.32147217,289,"2022-12-09T20:07:03.388Z"
57,0.7621777,0.6143262,0.16641602,289,"2022-12-09T20:08:03.950Z"
60,-0.010285645,0.98351806,-0.0854248,288,"2022-12-09T20:09:04.513Z"
53,0.039890137,0.9862085,-0.059001464,288,"2022-12-09T20:10:05.075Z"
67,0.59113526,0.7339038,0.37962645,287,"2022-12-09T20:11:05.637Z"
65,0.2041333,0.6923828,0.63706297,286,"2022-12-09T20:12:06.199Z"
59,0.7779053,0.6101758,0.14883545,286,"2022-12-09T20:13:06.761Z"
70,-0.14893067,0.91286135,-0.3634375,287,"2022-12-09T20:14:07.323Z"
75,0.04953613,0.89975584,-0.37830812,287,"2022-12-09T20:15:07.886Z"
58,0.964314,-0.11081055,0.24388915,288,"2022-12-09T20:16:08.448Z"
83,-0.6582031,-0.29755616,0.667854,287,"2022-12-09T20:17:09.010Z"
67,0.507561,0.8063965,0.124848634,286,"2022-12-09T20:18:09.573Z"
84,0.9882373,0.21124512,0.18630128,285,"2022-12-09T20:19:10.135Z"
92,0.87708986,0.385791,0.1969336,284,"2022-12-09T20:20:10.697Z"
104,0.30560791,0.8026782,0.41670898,279,"2022-12-09T20:21:11.259Z"
95,0.68305176,0.5854321,-0.39733154,278,"2022-12-09T20:22:11.821Z"
69,0.7255835,0.5704321,-0.4522217,277,"2022-12-09T20:23:12.383Z"
76,0.5447339,0.7659375,0.32331544,278,"2022-12-09T20:24:12.946Z"
62,0.90732175,0.32938966,0.24991211,278,"2022-12-09T20:25:13.508Z"
59,0.36911866,0.93574953,-0.12841308,277,"2022-12-09T20:26:14.055Z"
50,0.38102296,0.84644777,0.35409912,278,"2022-12-09T20:27:14.617Z"
49,0.31318605,0.88196045,0.33950928,279,"2022-12-09T20:28:15.180Z"
50,-0.41507325,0.8921289,-0.011760253,284,"2022-12-09T20:29:15.742Z"
49,-0.3664673,0.89588135,0.17534912,288,"2022-12-09T20:30:16.304Z"
43,-0.3253247,0.7918115,0.47910646,292,"2022-12-09T20:31:16.866Z"
54,-0.16445069,0.8777124,-0.44050294,294,"2022-12-09T20:32:17.428Z"
61,0.9083301,0.23915772,0.38247803,297,"2022-12-09T20:33:17.991Z"
56,0.67275393,0.63489014,0.39023927,298,"2022-12-09T20:34:18.553Z"
55,-0.06999756,0.93533206,-0.3224878,304,"2022-12-09T20:35:19.114Z"
48,0.82387453,0.5763184,-0.077678226,305,"2022-12-09T20:36:19.677Z"
53,0.5958521,0.6619434,-0.47551513,309,"2022-12-09T20:37:20.240Z"
54,-0.12705566,0.60873777,0.76135254,308,"2022-12-09T20:38:20.802Z"
50,-0.20205566,0.83434814,0.48040283,313,"2022-12-09T20:39:21.364Z"
65,0.86843264,0.37658447,0.38794678,313,"2022-12-09T20:40:21.926Z"
54,-0.8345703,-0.14649658,0.49652833,312,"2022-12-09T20:41:22.488Z"
53,-0.31428468,0.83939695,-0.092692874,311,"2022-12-09T20:42:23.050Z"
47,-0.014233398,0.72038084,0.67351073,310,"2022-12-09T20:43:23.613Z"
49,0.009855957,0.42406005,0.8822656,315,"2022-12-09T20:44:24.175Z"
50,-0.07512207,0.8540747,0.4850293,315,"2022-12-09T20:45:24.737Z"
46,0.12581544,0.628855,0.7522046,316,"2022-12-09T20:46:25.299Z"
48,-0.22219971,0.9411548,-0.048093263,317,"2022-12-09T20:47:25.861Z"
78,0.864541,0.50601315,-0.20277344,318,"2022-12-09T20:48:26.423Z"
55,-0.77034914,0.60665286,-0.0454834,317,"2022-12-09T20:49:26.986Z"
54,-0.73578125,0.5830127,-0.16379151,318,"2022-12-09T20:50:27.548Z"
48,-0.60707766,0.5289917,-0.5827978,318,"2022-12-09T20:51:28.109Z"
51,-0.5596069,0.65247315,-0.4949585,319,"2022-12-09T20:52:28.672Z"
46,-0.5800977,0.65485597,-0.466521,320,"2022-12-09T20:53:29.234Z"
39,-0.564458,0.59846437,-0.55708987,321,"2022-12-09T20:54:29.796Z"
47,-0.577854,0.5871167,-0.5546973,322,"2022-12-09T20:55:30.359Z"
42,-0.5928149,0.52944094,-0.5980176,324,"2022-12-09T20:56:30.921Z"
43,-0.57345945,0.45737794,-0.6750317,324,"2022-12-09T20:57:31.483Z"
44,-0.5693921,0.5338745,-0.6176221,324,"2022-12-09T20:58:32.045Z"
46,-0.583689,0.5451489,-0.59184325,325,"2022-12-09T20:59:32.607Z"
46,-0.5798926,0.5790088,-0.553811,326,"2022-12-09T21:00:33.169Z"
51,-0.55653566,0.58360106,-0.58334714,327,"2022-12-09T21:01:33.732Z"
61,-0.6182129,0.5544238,-0.5440991,330,"2022-12-09T21:02:34.294Z"
49,-0.62220216,0.5973877,-0.4891382,330,"2022-12-09T21:03:34.856Z"
51,-0.61058104,0.64201415,-0.4423926,331,"2022-12-09T21:04:35.418Z"
50,-0.59101075,0.6243823,-0.4928296,330,"2022-12-09T21:05:35.980Z"
49,-0.58545655,0.5394556,-0.59327394,331,"2022-12-09T21:06:36.542Z"
60,-0.21329346,0.9404614,-0.32507813,332,"2022-12-09T21:07:37.104Z"
66,-0.69137937,0.6821606,0.114729,329,"2022-12-09T21:08:37.667Z"
63,-0.088134766,0.9902954,-0.07708252,326,"2022-12-09T21:09:38.229Z"
59,0.8365405,0.3579077,0.017822266,325,"2022-12-09T21:10:38.791Z"
61,0.9454419,0.24789307,0.28124022,324,"2022-12-09T21:11:39.353Z"
53,-0.33109376,0.85613036,0.34838378,322,"2022-12-09T21:12:39.916Z"
50,-0.40755615,0.8790625,-0.19331543,320,"2022-12-09T21:13:40.478Z"
43,-0.4348999,0.85187745,0.22265136,322,"2022-12-09T21:14:41.040Z"
43,-0.7211841,0.6667944,-0.019060059,325,"2022-12-09T21:15:41.602Z"
51,-0.25967285,0.9015283,0.29419923,326,"2022-12-09T21:16:42.164Z"
45,-0.19265625,0.7461768,-0.6357642,328,"2022-12-09T21:17:42.726Z"
60,0.7280664,0.62442136,0.28828126,328,"2022-12-09T21:18:43.289Z"
62,0.8005151,0.48993897,0.39022216,326,"2022-12-09T21:19:43.851Z"
65,0.041816406,0.49377686,-0.8505151,336,"2022-12-09T21:20:44.412Z"
75,0.29067382,0.9288037,0.1039209,349,"2022-12-09T21:21:44.974Z"
78,0.69997317,0.6712036,0.18111816,356,"2022-12-09T21:22:45.536Z"
54,-0.26492187,0.9084644,-0.31294432,357,"2022-12-09T21:23:46.099Z"
65,0.184646,0.5013501,0.8160083,360,"2022-12-09T21:24:46.661Z"
52,0.9401294,0.3534546,0.1089917,363,"2022-12-09T21:25:47.223Z"
65,0.25520265,0.7704639,0.55124265,356,"2022-12-09T21:26:47.785Z"
62,0.6038208,0.14541993,0.781792,365,"2022-12-09T21:27:48.347Z"
63,0.774458,0.69625,0.03233154,370,"2022-12-09T21:28:48.909Z"
60,0.9827564,0.31325683,-0.019711914,364,"2022-12-09T21:29:49.471Z"
70,0.7522266,0.32639405,-0.6027124,350,"2022-12-09T21:30:50.034Z"
66,0.84243655,0.34657714,0.44263428,340,"2022-12-09T21:31:50.596Z"
39,0.84308106,0.33181396,0.45125487,337,"2022-12-09T21:32:51.158Z"
40,0.843667,0.33108887,0.45039064,336,"2022-12-09T21:33:51.720Z"
39,0.8427979,0.32573485,0.45545167,335,"2022-12-09T21:34:52.283Z"
40,0.84189206,0.32293946,0.45851076,335,"2022-12-09T21:35:52.845Z"
41,0.843186,0.32828858,0.45183104,335,"2022-12-09T21:36:53.407Z"
38,0.8418726,0.3258618,0.45690674,334,"2022-12-09T21:37:53.969Z"
39,0.8408569,0.32336426,0.46001953,335,"2022-12-09T21:38:54.531Z"
40,0.84135497,0.3108789,0.46751708,335,"2022-12-09T21:39:55.094Z"
38,0.84102297,0.2908374,0.4815381,335,"2022-12-09T21:40:55.656Z"
40,0.8417505,0.29322755,0.47786376,335,"2022-12-09T21:41:56.218Z"
37,0.8419116,0.2918506,0.47883302,336,"2022-12-09T21:42:56.780Z"
38,0.83988523,0.2872998,0.48478273,336,"2022-12-09T21:43:57.342Z"
39,0.8407397,0.2880249,0.48243165,337,"2022-12-09T21:44:57.904Z"
42,0.84199464,0.28916505,0.47857666,337,"2022-12-09T21:45:58.466Z"
37,0.83875245,0.28394777,0.48809326,338,"2022-12-09T21:46:59.029Z"
38,0.8397388,0.2846533,0.48712647,338,"2022-12-09T21:47:59.591Z"
43,0.8389795,0.28273192,0.48858398,339,"2022-12-09T21:49:00.153Z"
39,0.8409644,0.2856616,0.4833618,339,"2022-12-09T21:50:00.715Z"
43,0.8418506,0.28552735,0.48354492,340,"2022-12-09T21:51:01.262Z"
51,0.85726565,0.20980224,0.4971533,340,"2022-12-09T21:52:01.825Z"
40,0.8521533,0.18635987,0.5146289,341,"2022-12-09T21:53:02.387Z"
39,0.85214114,0.18415283,0.5153467,341,"2022-12-09T21:54:02.949Z"
38,0.8530884,0.18337159,0.515,341,"2022-12-09T21:55:03.511Z"
38,0.85172606,0.17648193,0.5184424,342,"2022-12-09T21:56:04.073Z"
38,0.8521582,0.1750122,0.52024657,342,"2022-12-09T21:57:04.635Z"
38,0.8537036,0.17609863,0.516958,343,"2022-12-09T21:58:05.198Z"
39,0.85563475,0.17241211,0.5149463,343,"2022-12-09T21:59:05.760Z"
39,0.8545581,0.17079346,0.51620847,344,"2022-12-09T22:00:06.322Z"
37,0.8555518,0.17155762,0.5151074,344,"2022-12-09T22:01:06.884Z"
40,0.8531909,0.16749023,0.51965576,345,"2022-12-09T22:02:07.446Z"
40,0.8526807,0.16629395,0.52053714,345,"2022-12-09T22:03:08.008Z"
38,0.8538306,0.16730957,0.5190552,345,"2022-12-09T22:04:08.571Z"
39,0.85329103,0.16644776,0.5205298,346,"2022-12-09T22:05:09.146Z"
40,0.85302246,0.1644043,0.5209497,347,"2022-12-09T22:06:09.708Z"
39,0.8531665,0.16404785,0.5208569,347,"2022-12-09T22:07:10.270Z"
39,0.8530542,0.16369629,0.52068603,348,"2022-12-09T22:08:10.832Z"
40,0.8530029,0.16212402,0.5222803,348,"2022-12-09T22:09:11.394Z"
41,0.85448486,0.16523926,0.5185181,348,"2022-12-09T22:10:11.956Z"
39,0.8526367,0.16171876,0.5225342,348,"2022-12-09T22:11:12.518Z"
41,0.8531006,0.16098633,0.5224097,349,"2022-12-09T22:12:13.081Z"
38,0.853977,0.16246825,0.5204761,349,"2022-12-09T22:13:13.643Z"
39,0.8532544,0.16081788,0.52297366,349,"2022-12-09T22:14:14.205Z"
40,0.8531104,0.16061524,0.5223242,350,"2022-12-09T22:15:14.767Z"
41,0.85422605,0.16130616,0.52006835,350,"2022-12-09T22:16:15.329Z"
41,0.85337645,0.15710694,0.5226538,350,"2022-12-09T22:17:15.891Z"
62,-0.119802244,0.03989746,0.9819556,351,"2022-12-09T22:18:16.453Z"
44,-0.12342529,0.04529541,0.981311,351,"2022-12-09T22:19:17.015Z"
39,-0.12810546,0.046044923,0.98036623,351,"2022-12-09T22:20:17.578Z"
45,-0.13091797,0.04626221,0.9794775,351,"2022-12-09T22:21:18.140Z"
46,-0.1287085,0.04519043,0.9800879,352,"2022-12-09T22:22:18.702Z"
43,-0.12873535,0.044631347,0.97993165,352,"2022-12-09T22:23:19.264Z"
46,-0.17502198,0.020263672,0.97243166,352,"2022-12-09T22:24:19.828Z"
61,-0.3809253,-0.25002685,0.879043,352,"2022-12-09T22:25:20.390Z"
42,-0.37826172,-0.24465331,0.88152343,352,"2022-12-09T22:26:20.952Z"
44,-0.39143553,-0.29099366,0.8626416,352,"2022-12-09T22:27:21.514Z"
48,-0.39163575,-0.28958496,0.86276364,352,"2022-12-09T22:28:22.076Z"
44,-0.39078125,-0.292041,0.86189944,352,"2022-12-09T22:29:22.638Z"
50,-0.39024413,-0.2918286,0.86213136,353,"2022-12-09T22:30:23.200Z"
47,-0.3888379,-0.29076904,0.8635864,353,"2022-12-09T22:31:23.763Z"
46,-0.38866454,-0.29125,0.8631982,353,"2022-12-09T22:32:24.325Z"
46,-0.3907666,-0.28879395,0.86330324,353,"2022-12-09T22:33:24.887Z"
44,-0.39016113,-0.2880957,0.8633594,353,"2022-12-09T22:34:25.449Z"
46,-0.38948,-0.28898194,0.8634985,354,"2022-12-09T22:35:26.011Z"
44,-0.3917041,-0.271333,0.86794436,354,"2022-12-09T22:36:26.573Z"
44,-0.3915869,-0.27165282,0.8676392,354,"2022-12-09T22:37:27.135Z"
47,-0.39205566,-0.27114746,0.8676587,354,"2022-12-09T22:38:27.698Z"
44,-0.3921411,-0.27150634,0.8672534,354,"2022-12-09T22:39:28.260Z"
43,-0.39101073,-0.2718042,0.8681836,355,"2022-12-09T22:40:28.822Z"
43,-0.39081544,-0.27174804,0.8679956,355,"2022-12-09T22:41:29.384Z"
45,-0.39103517,-0.27125245,0.8682031,355,"2022-12-09T22:42:29.946Z"
40,-0.39771485,-0.2545703,0.8697241,355,"2022-12-09T22:43:30.517Z"
43,-0.39676026,-0.2556836,0.8698047,355,"2022-12-09T22:44:31.083Z"
42,-0.39590332,-0.25913575,0.8692578,355,"2022-12-09T22:45:31.645Z"
45,-0.39564455,-0.26011717,0.86915773,356,"2022-12-09T22:46:32.207Z"
44,-0.39615723,-0.26028076,0.8688965,355,"2022-12-09T22:47:32.770Z"
43,-0.39544678,-0.25947753,0.8692139,356,"2022-12-09T22:48:33.332Z"
43,-0.39606446,-0.25882813,0.86989015,356,"2022-12-09T22:49:33.894Z"
41,-0.39659667,-0.257334,0.86941165,356,"2022-12-09T22:50:34.456Z"
45,-0.3959619,-0.25827637,0.868999,356,"2022-12-09T22:51:35.018Z"
45,-0.3966089,-0.25649902,0.8693164,356,"2022-12-09T22:52:35.580Z"
43,-0.397854,-0.2572534,0.8691919,356,"2022-12-09T22:53:36.142Z"
45,-0.39704102,-0.2567993,0.8693384,356,"2022-12-09T22:54:36.705Z"
54,-0.40681154,-0.052053224,0.89646727,356,"2022-12-09T22:55:37.267Z"
42,-0.4078662,-0.05024658,0.89612794,356,"2022-12-09T22:56:37.829Z"
42,-0.40931398,-0.051420897,0.89523196,356,"2022-12-09T22:57:38.391Z"
42,-0.40705812,-0.050163575,0.8964331,356,"2022-12-09T22:58:38.953Z"
40,-0.40692872,-0.05111328,0.8963403,356,"2022-12-09T22:59:39.515Z"
45,-0.4086206,-0.051169433,0.89509034,356,"2022-12-09T23:00:40.077Z"
43,-0.40674073,-0.051203612,0.89667237,356,"2022-12-09T23:01:40.639Z"
40,-0.40905762,-0.052382812,0.89510745,356,"2022-12-09T23:02:41.210Z"
45,-0.40628174,-0.050578613,0.89681154,356,"2022-12-09T23:03:41.776Z"
43,-0.4061377,-0.050646972,0.89664304,356,"2022-12-09T23:04:42.338Z"
39,-0.40810058,-0.050908204,0.8958667,356,"2022-12-09T23:05:42.900Z"
40,-0.407583,-0.051069334,0.8962549,356,"2022-12-09T23:06:43.463Z"
41,-0.4087793,-0.05246338,0.8951514,356,"2022-12-09T23:07:44.025Z"
38,-0.40799072,-0.051354982,0.89610595,356,"2022-12-09T23:08:44.587Z"
43,-0.4057422,-0.05088623,0.8970386,356,"2022-12-09T23:09:45.149Z"
40,-0.40570557,-0.051074218,0.89683837,356,"2022-12-09T23:10:45.711Z"
40,-0.40578857,-0.050358888,0.8971533,356,"2022-12-09T23:11:46.273Z"
41,-0.40859863,-0.051931154,0.8956519,356,"2022-12-09T23:12:46.835Z"
39,-0.40631837,-0.051467285,0.8966577,356,"2022-12-09T23:13:47.398Z"
40,-0.40529296,-0.05130615,0.8978174,356,"2022-12-09T23:14:47.960Z"
38,-0.40766358,-0.051977538,0.8963501,356,"2022-12-09T23:15:48.522Z"
41,-0.40557617,-0.051083986,0.89736086,357,"2022-12-09T23:16:49.084Z"
41,-0.40759522,-0.05161865,0.8960718,357,"2022-12-09T23:17:49.646Z"
45,-0.40720704,-0.051733397,0.89571536,357,"2022-12-09T23:18:50.208Z"
38,-0.40503907,-0.051052246,0.8974121,357,"2022-12-09T23:19:50.771Z"
38,-0.4066797,-0.051201172,0.8967334,357,"2022-12-09T23:20:51.333Z"
39,-0.4048462,-0.050754394,0.8975781,357,"2022-12-09T23:21:51.903Z"
41,-0.40485352,-0.051633302,0.89749026,357,"2022-12-09T23:22:52.469Z"
39,-0.40497804,-0.05146973,0.89767337,357,"2022-12-09T23:23:53.031Z"
65,-0.073918454,0.45846435,0.87111086,357,"2022-12-09T23:24:53.594Z"
45,-0.034018554,0.71934813,0.67389894,357,"2022-12-09T23:25:54.156Z"
37,-0.04470459,0.36810547,0.91674316,357,"2022-12-09T23:26:54.718Z"
39,-0.044284668,0.36833495,0.9160791,357,"2022-12-09T23:27:55.280Z"
48,-0.027058106,0.7121704,0.6823169,358,"2022-12-09T23:28:55.842Z"
40,-0.025898438,0.7115723,0.6832129,358,"2022-12-09T23:29:56.404Z"
42,-0.025898438,0.71174806,0.6829077,358,"2022-12-09T23:30:56.967Z"
41,-0.04276123,0.60216796,0.78016603,357,"2022-12-09T23:31:57.529Z"
46,-0.09609863,0.41604736,0.8735107,357,"2022-12-09T23:32:58.091Z"
39,-0.05713623,0.45328858,0.87577635,357,"2022-12-09T23:33:58.653Z"
37,-0.064978026,0.7736255,0.6074707,357,"2022-12-09T23:34:59.215Z"
40,-0.06273194,0.7750513,0.6063037,357,"2022-12-09T23:35:59.777Z"
38,-0.0634082,0.7719922,0.60919434,357,"2022-12-09T23:37:00.339Z"
38,-0.0614209,0.7717334,0.6111279,357,"2022-12-09T23:38:00.901Z"
39,-0.061247557,0.77110106,0.61118406,357,"2022-12-09T23:39:01.464Z"
36,-0.061086427,0.7711841,0.6115747,357,"2022-12-09T23:40:02.026Z"
39,-0.15717773,0.16000733,0.9616748,357,"2022-12-09T23:41:02.596Z"
40,-0.15599853,0.15611573,0.9628662,357,"2022-12-09T23:42:03.162Z"
37,-0.1570337,0.15713134,0.963147,357,"2022-12-09T23:43:03.725Z"
39,-0.15684815,0.15756592,0.96269286,357,"2022-12-09T23:44:04.287Z"
39,-0.15720458,0.15843262,0.96254885,358,"2022-12-09T23:45:04.849Z"
39,-0.15644287,0.1586377,0.9627808,358,"2022-12-09T23:46:05.411Z"
38,-0.15494628,0.1597876,0.96268797,358,"2022-12-09T23:47:05.973Z"
45,-0.2071167,0.1828125,0.9555786,358,"2022-12-09T23:48:06.535Z"
40,-0.11087891,0.9526636,-0.2600659,357,"2022-12-09T23:49:07.097Z"
40,-0.10952881,0.95552737,-0.24659668,355,"2022-12-09T23:50:07.659Z"
41,-0.109870605,0.95576906,-0.24700195,354,"2022-12-09T23:51:08.222Z"
39,-0.08226074,0.9316553,-0.3404126,353,"2022-12-09T23:52:08.784Z"
35,-0.116049804,0.9350415,-0.3177954,352,"2022-12-09T23:53:09.346Z"
42,-0.11571289,0.9355249,-0.31836915,352,"2022-12-09T23:54:09.908Z"
41,-0.11582031,0.93564695,-0.3175293,352,"2022-12-09T23:55:10.470Z"
46,-0.11611328,0.9352051,-0.31750244,352,"2022-12-09T23:56:11.032Z"
41,-0.11577392,0.9351953,-0.31748047,352,"2022-12-09T23:57:11.594Z"
45,-0.115573734,0.9351392,-0.31706542,352,"2022-12-09T23:58:12.157Z"
45,-0.1154126,0.9351196,-0.3171582,352,"2022-12-09T23:59:12.719Z"
46,-0.11518799,0.93551755,-0.31727782,352,"2022-12-10T00:00:00.792Z"
42,-0.11490235,0.9356177,-0.31815675,353,"2022-12-10T00:01:01.359Z"
45,-0.11453857,0.9349292,-0.3180591,352,"2022-12-10T00:02:01.921Z"
49,-0.114614256,0.93583983,-0.31519288,352,"2022-12-10T00:03:02.483Z"
50,-0.1138208,0.93651366,-0.31559572,352,"2022-12-10T00:04:03.045Z"
52,-0.113500975,0.9359424,-0.31527588,352,"2022-12-10T00:05:03.607Z"
46,-0.114455566,0.9361011,-0.31536376,353,"2022-12-10T00:06:04.169Z"
48,-0.11410889,0.9361548,-0.31555665,353,"2022-12-10T00:07:04.731Z"
47,-0.113935545,0.93588376,-0.315896,353,"2022-12-10T00:08:05.294Z"
48,-0.11425537,0.93627197,-0.31549317,353,"2022-12-10T00:09:05.856Z"
46,-0.11380127,0.93606204,-0.3157251,353,"2022-12-10T00:10:06.418Z"
43,-0.111975096,0.9393115,-0.3060083,353,"2022-12-10T00:11:06.980Z"
44,-0.11260254,0.93912107,-0.3062036,353,"2022-12-10T00:12:07.542Z"
44,-0.11265137,0.93968016,-0.3053589,354,"2022-12-10T00:13:08.104Z"
46,0.05751221,-0.017404785,0.9923633,353,"2022-12-10T00:14:08.667Z"
46,0.05652588,-0.014951172,0.99248046,353,"2022-12-10T00:15:09.229Z"
48,0.056184083,-0.014343262,0.99220705,354,"2022-12-10T00:16:09.791Z"
45,0.055307616,-0.01612793,0.99242187,354,"2022-12-10T00:17:10.353Z"
47,0.055415038,-0.015500489,0.9923291,355,"2022-12-10T00:18:10.915Z"
43,0.055698242,-0.015305175,0.9926538,355,"2022-12-10T00:19:11.477Z"
46,0.05590332,-0.014333496,0.99211425,356,"2022-12-10T00:20:12.052Z"
45,0.055944823,-0.014550781,0.9927344,356,"2022-12-10T00:21:12.614Z"
45,0.05588867,-0.0144311525,0.9928272,356,"2022-12-10T00:22:13.176Z"
42,0.056240235,-0.014956054,0.99268556,357,"2022-12-10T00:23:13.738Z"
45,0.05617676,-0.014230957,0.9929663,357,"2022-12-10T00:24:14.301Z"
49,0.055717774,-0.013833008,0.9928882,357,"2022-12-10T00:25:14.863Z"
47,0.056047365,-0.013952637,0.99237794,358,"2022-12-10T00:26:15.425Z"
45,0.056716308,-0.014328613,0.9929785,358,"2022-12-10T00:27:15.987Z"
47,0.055808105,-0.013879394,0.99276614,358,"2022-12-10T00:28:16.549Z"
43,0.056315918,-0.014746094,0.99289304,358,"2022-12-10T00:29:17.111Z"
47,0.056208495,-0.014492188,0.9930591,359,"2022-12-10T00:30:17.673Z"
40,0.056359865,-0.013354492,0.99307615,359,"2022-12-10T00:31:18.236Z"
43,0.05640137,-0.012038575,0.99281985,359,"2022-12-10T00:32:18.798Z"
47,0.0571167,-0.011687011,0.9930713,359,"2022-12-10T00:33:19.360Z"
45,0.05701416,-0.012380371,0.9928052,359,"2022-12-10T00:34:19.922Z"
45,0.05688965,-0.013173828,0.9927832,359,"2022-12-10T00:35:20.484Z"
46,0.057331543,-0.012880859,0.99260986,359,"2022-12-10T00:36:21.046Z"
48,0.05750488,-0.012145996,0.99318606,360,"2022-12-10T00:37:21.608Z"
40,0.05766846,-0.0127685545,0.993042,360,"2022-12-10T00:38:22.170Z"
47,0.0572583,-0.011838379,0.9926123,361,"2022-12-10T00:39:22.745Z"
38,0.056159668,0.01053955,0.99232423,360,"2022-12-10T00:40:23.307Z"
40,0.056000978,0.0103100585,0.9925244,360,"2022-12-10T00:41:23.869Z"
36,0.055905763,0.010266113,0.9926831,360,"2022-12-10T00:42:24.431Z"
39,-0.4169629,-0.7739551,0.45021483,360,"2022-12-10T00:43:24.994Z"
36,-0.5831348,-0.20819336,0.76723146,359,"2022-12-10T00:44:25.556Z"
37,-0.5757422,0.013537598,0.79508054,359,"2022-12-10T00:45:26.118Z"
50,-0.6206006,-0.64243895,0.44290772,359,"2022-12-10T00:46:26.680Z"
43,-0.6270483,-0.60279053,0.48341066,359,"2022-12-10T00:47:27.242Z"
44,-0.6241943,-0.60455567,0.48459718,359,"2022-12-10T00:48:27.801Z"
44,-0.6206445,-0.60496336,0.4884497,359,"2022-12-10T00:49:28.368Z"
44,-0.6193603,-0.6043311,0.49088135,358,"2022-12-10T00:50:28.930Z"
41,-0.61859375,-0.6042285,0.4917456,358,"2022-12-10T00:51:29.492Z"
38,-0.61785644,-0.60263914,0.49443847,358,"2022-12-10T00:52:30.054Z"
37,-0.616958,-0.60247314,0.4957715,358,"2022-12-10T00:53:30.616Z"
35,-0.59983885,-0.66162354,0.4435254,358,"2022-12-10T00:54:31.178Z"
37,-0.5990845,-0.6605884,0.446687,357,"2022-12-10T00:55:31.741Z"
37,-0.59799075,-0.65856934,0.45122313,357,"2022-12-10T00:56:32.303Z"
35,-0.5849536,-0.68459964,0.4317749,357,"2022-12-10T00:57:32.850Z"
49,-0.58536375,-0.6850122,0.42858398,357,"2022-12-10T00:58:33.425Z"
37,-0.5845874,-0.68543214,0.4302417,356,"2022-12-10T00:59:33.987Z"
37,-0.5863794,-0.6785083,0.43723145,356,"2022-12-10T01:00:34.549Z"
36,-0.58746094,-0.67696536,0.4399121,355,"2022-12-10T01:01:35.111Z"
36,-0.58635986,-0.6756128,0.44151855,355,"2022-12-10T01:02:35.673Z"
42,-0.5861133,-0.67605954,0.44144043,355,"2022-12-10T01:03:36.236Z"
37,-0.5856372,-0.67578125,0.44160157,355,"2022-12-10T01:04:36.798Z"
38,-0.58573973,-0.6762085,0.44141114,355,"2022-12-10T01:05:37.360Z"
35,-0.5854468,-0.67679197,0.44129395,355,"2022-12-10T01:06:37.922Z"
35,-0.5854468,-0.6770459,0.44167724,355,"2022-12-10T01:07:38.492Z"
35,-0.5843042,-0.6770117,0.4427539,355,"2022-12-10T01:08:39.059Z"
41,-0.58377683,-0.6774121,0.4422876,355,"2022-12-10T01:09:39.621Z"
40,-0.58377194,-0.6775,0.44303712,355,"2022-12-10T01:10:40.183Z"
38,-0.5833032,-0.67716795,0.4425537,355,"2022-12-10T01:11:40.745Z"
35,-0.5835791,-0.67789793,0.44195557,355,"2022-12-10T01:12:41.307Z"
37,-0.5831372,-0.67809325,0.44189698,355,"2022-12-10T01:13:41.870Z"
40,-0.5823462,-0.6781323,0.44253173,355,"2022-12-10T01:14:42.432Z"
36,-0.5819165,-0.678938,0.44296142,355,"2022-12-10T01:15:42.994Z"
35,-0.58183837,-0.67866457,0.44219482,355,"2022-12-10T01:16:43.556Z"
35,-0.5818506,-0.67857176,0.44261962,356,"2022-12-10T01:17:44.131Z"
37,-0.58991945,-0.32891113,0.7209863,356,"2022-12-10T01:18:44.693Z"
45,-0.6791382,0.5205591,0.27529052,356,"2022-12-10T01:19:45.255Z"
57,-0.11310059,0.8198584,0.53491455,355,"2022-12-10T01:20:45.817Z"
45,-0.10830078,0.82559085,0.52718997,355,"2022-12-10T01:21:46.379Z"
43,-0.2491333,0.936958,-0.20233643,354,"2022-12-10T01:22:46.941Z"
42,-0.24863769,0.93785155,-0.19971679,353,"2022-12-10T01:23:47.503Z"
42,-0.2487793,0.93727785,-0.20051025,353,"2022-12-10T01:24:48.066Z"
50,-0.24922852,0.9377783,-0.19975342,353,"2022-12-10T01:25:48.628Z"
43,-0.24902344,0.9365649,-0.20496581,353,"2022-12-10T01:26:49.198Z"
43,-0.24980713,0.93651366,-0.20608887,354,"2022-12-10T01:27:49.764Z"
41,-0.24937011,0.93615234,-0.20571533,353,"2022-12-10T01:28:50.327Z"
37,-0.2467578,0.9382202,-0.20068115,354,"2022-12-10T01:29:50.889Z"
39,-0.24650146,0.938064,-0.20053712,354,"2022-12-10T01:30:51.451Z"
41,-0.246333,0.9386377,-0.19950928,354,"2022-12-10T01:31:52.013Z"
37,-0.24677002,0.93858397,-0.19807617,354,"2022-12-10T01:32:52.575Z"
36,-0.24703613,0.93923587,-0.19696045,355,"2022-12-10T01:33:53.137Z"
41,-0.23501953,0.9380493,-0.21458985,355,"2022-12-10T01:34:53.699Z"
46,-0.23769775,0.93884766,-0.21016358,355,"2022-12-10T01:35:54.262Z"
36,-0.23851319,0.9383911,-0.21017578,355,"2022-12-10T01:36:54.836Z"
49,-0.23973145,0.93848634,-0.21041504,355,"2022-12-10T01:37:55.398Z"
34,-0.23992431,0.9388818,-0.21037354,355,"2022-12-10T01:38:55.960Z"
35,-0.42047852,0.69062746,0.5522363,355,"2022-12-10T01:39:56.523Z"
42,-0.4206836,0.6927051,0.5504785,355,"2022-12-10T01:40:57.085Z"
38,-0.41921142,0.69284177,0.5511914,355,"2022-12-10T01:41:57.647Z"
37,-0.41753173,0.69119143,0.5542798,355,"2022-12-10T01:42:58.209Z"
40,-0.41694582,0.6912915,0.5552734,354,"2022-12-10T01:43:58.771Z"
38,-0.41815186,0.69076174,0.5548218,354,"2022-12-10T01:44:59.333Z"
37,-0.41793945,0.69034666,0.55489993,355,"2022-12-10T01:45:59.904Z"
40,-0.41732666,0.6903491,0.55561036,355,"2022-12-10T01:47:00.470Z"
36,-0.4172803,0.6902149,0.5564892,355,"2022-12-10T01:48:01.032Z"
38,-0.4168579,0.6902197,0.5563648,355,"2022-12-10T01:49:01.594Z"
38,-0.4165674,0.690271,0.5569092,355,"2022-12-10T01:50:02.142Z"
37,-0.41723877,0.6902124,0.556897,355,"2022-12-10T01:51:02.704Z"
35,-0.41631103,0.68964845,0.5570337,355,"2022-12-10T01:52:03.266Z"
36,-0.41600585,0.689812,0.55723876,356,"2022-12-10T01:53:03.828Z"
36,-0.4165625,0.6894409,0.5578052,356,"2022-12-10T01:54:04.390Z"
34,-0.41680908,0.6896582,0.55684084,356,"2022-12-10T01:55:04.952Z"
36,-0.4159668,0.6890625,0.55818605,356,"2022-12-10T01:56:05.527Z"
51,0.2280127,-0.95022947,0.007348633,356,"2022-12-10T01:57:06.089Z"
42,-0.5196313,-0.79286134,0.32697755,356,"2022-12-10T01:58:06.651Z"
38,-0.51623046,-0.7963647,0.3242407,355,"2022-12-10T01:59:07.213Z"
46,-0.32333985,0.93193847,-0.05412842,355,"2022-12-10T02:00:07.776Z"
36,-0.32274902,0.9328003,-0.05183594,353,"2022-12-10T02:01:08.338Z"
40,-0.32237792,0.9331372,-0.050708007,353,"2022-12-10T02:02:08.900Z"
35,-0.32144287,0.93349856,-0.041171875,352,"2022-12-10T02:03:09.462Z"
37,-0.32061523,0.9335693,-0.04053955,352,"2022-12-10T02:04:10.024Z"
35,-0.3204712,0.9335596,-0.03972168,352,"2022-12-10T02:05:10.594Z"
37,-0.32052734,0.9338501,-0.03965332,353,"2022-12-10T02:06:11.161Z"
36,-0.3202124,0.93380374,-0.039213866,353,"2022-12-10T02:07:11.723Z"
35,-0.3165625,0.9347241,-0.03788086,353,"2022-12-10T02:08:12.285Z"
37,-0.317583,0.93521,-0.03816162,353,"2022-12-10T02:09:12.847Z"
38,-0.31713867,0.93479246,-0.03763916,353,"2022-12-10T02:10:13.409Z"
45,-0.3169922,0.9353003,-0.036931153,353,"2022-12-10T02:11:13.972Z"
43,-0.31688476,0.9348535,-0.036306154,353,"2022-12-10T02:12:14.534Z"
50,-0.61980957,-0.13912597,0.7508838,353,"2022-12-10T02:13:15.096Z"
38,-0.6171216,-0.13481201,0.7538989,352,"2022-12-10T02:14:15.658Z"
39,-0.6183203,-0.13497803,0.75291014,352,"2022-12-10T02:15:16.233Z"
38,-0.61735106,-0.1351001,0.75314695,352,"2022-12-10T02:16:16.795Z"
43,-0.61754394,-0.13571289,0.75320554,351,"2022-12-10T02:17:17.357Z"
39,-0.6173657,-0.1358838,0.7534424,351,"2022-12-10T02:18:17.919Z"
42,-0.6171753,-0.134646,0.7535913,351,"2022-12-10T02:19:18.481Z"
38,-0.6172095,-0.13403809,0.7535596,351,"2022-12-10T02:20:19.043Z"
35,-0.6038794,-0.11784668,0.76619875,351,"2022-12-10T02:21:19.606Z"
39,-0.6041968,-0.12329346,0.76606935,351,"2022-12-10T02:22:20.168Z"
43,-0.6029614,-0.124074705,0.7665918,351,"2022-12-10T02:23:20.730Z"
37,-0.59948486,-0.12665528,0.7691895,351,"2022-12-10T02:24:21.292Z"
44,-0.6011475,-0.12706786,0.7678955,351,"2022-12-10T02:25:21.867Z"
42,-0.5996338,-0.12647218,0.76874757,351,"2022-12-10T02:26:22.429Z"
43,-0.60158694,-0.12818848,0.76767576,351,"2022-12-10T02:27:22.991Z"
46,-0.60011476,-0.12979737,0.76838624,351,"2022-12-10T02:28:23.553Z"
49,-0.6008789,-0.12657958,0.76779056,351,"2022-12-10T02:29:24.115Z"
35,-0.42009032,-0.39107665,0.8090381,351,"2022-12-10T02:30:24.677Z"
38,-0.41644287,-0.39309326,0.8099145,351,"2022-12-10T02:31:25.240Z"
46,-0.41610596,-0.38890624,0.8120117,351,"2022-12-10T02:32:25.802Z"
38,-0.4146997,-0.38991454,0.81201416,352,"2022-12-10T02:33:26.364Z"
39,-0.4124121,-0.38250488,0.8169897,352,"2022-12-10T02:34:26.934Z"
47,-0.4096582,-0.36496827,0.8256958,352,"2022-12-10T02:35:27.500Z"
34,-0.4092554,-0.3637866,0.82650393,352,"2022-12-10T02:36:28.063Z"
38,-0.40662354,-0.3638037,0.82779294,353,"2022-12-10T02:37:28.625Z"
43,-0.40336183,-0.34838623,0.8351001,353,"2022-12-10T02:38:29.187Z"
44,-0.40368897,-0.34355956,0.8372974,353,"2022-12-10T02:39:29.749Z"
40,-0.40336913,-0.34414062,0.83669925,353,"2022-12-10T02:40:30.311Z"
37,-0.6105591,-0.22552735,0.7390674,353,"2022-12-10T02:41:30.874Z"
38,-0.6114722,-0.2319873,0.73667234,353,"2022-12-10T02:42:31.436Z"
46,-0.6109619,-0.23021972,0.7378662,353,"2022-12-10T02:43:31.998Z"
54,-0.16194825,0.24108887,0.9429517,354,"2022-12-10T02:44:32.572Z"
41,-0.16223633,0.24411622,0.9424902,354,"2022-12-10T02:45:33.135Z"
41,-0.1607959,0.24382812,0.9428882,354,"2022-12-10T02:46:33.697Z"
43,-0.16048583,0.24377441,0.94291747,354,"2022-12-10T02:47:34.259Z"
40,-0.15921387,0.23742431,0.9452246,353,"2022-12-10T02:48:34.821Z"
38,-0.1624536,0.23511963,0.9443872,354,"2022-12-10T02:49:35.383Z"
38,-0.16138184,0.23561524,0.9448462,354,"2022-12-10T02:50:35.945Z"
37,-0.16226318,0.23711914,0.9439331,354,"2022-12-10T02:51:36.507Z"
48,-0.62567383,-0.3315503,0.6877832,354,"2022-12-10T02:52:37.070Z"
38,-0.62368166,-0.3299414,0.69051516,354,"2022-12-10T02:53:37.640Z"
40,-0.6230103,-0.33198,0.69057375,354,"2022-12-10T02:54:38.206Z"
37,-0.6223828,-0.33204347,0.691001,354,"2022-12-10T02:55:38.768Z"
40,-0.6230713,-0.33294433,0.6901123,353,"2022-12-10T02:56:39.331Z"
39,-0.62042236,-0.33394775,0.6922876,353,"2022-12-10T02:57:39.893Z"
39,-0.6211035,-0.33456054,0.6910962,353,"2022-12-10T02:58:40.455Z"
37,-0.6205151,-0.33345214,0.6913769,353,"2022-12-10T02:59:41.017Z"
37,-0.62118167,-0.33420655,0.69082034,353,"2022-12-10T03:00:41.579Z"
37,-0.6212573,-0.3355908,0.69024414,353,"2022-12-10T03:01:42.141Z"
36,-0.62049073,-0.33631837,0.6905127,353,"2022-12-10T03:02:42.703Z"
36,-0.6211621,-0.3362622,0.69024414,353,"2022-12-10T03:03:43.278Z"
37,-0.6203272,-0.33560303,0.691167,353,"2022-12-10T03:04:43.840Z"
38,-0.62079835,-0.33608398,0.69025147,353,"2022-12-10T03:05:44.402Z"
39,-0.6208618,-0.3364624,0.6903003,353,"2022-12-10T03:06:44.964Z"
37,-0.61992186,-0.33754393,0.6903345,353,"2022-12-10T03:07:45.527Z"
34,-0.6205127,-0.3373706,0.69022703,352,"2022-12-10T03:08:46.089Z"
37,-0.6182129,-0.33712646,0.69153565,353,"2022-12-10T03:09:46.651Z"
36,-0.61985594,-0.33822754,0.6899536,353,"2022-12-10T03:10:47.213Z"
40,-0.61935544,-0.33792725,0.69099367,353,"2022-12-10T03:11:47.775Z"
38,-0.6192456,-0.3377173,0.69112796,353,"2022-12-10T03:12:48.345Z"
39,-0.61960936,-0.33823732,0.69092774,353,"2022-12-10T03:13:48.912Z"
39,-0.6188379,-0.33844483,0.69175535,353,"2022-12-10T03:14:49.474Z"
37,-0.61718017,-0.3397632,0.69271487,353,"2022-12-10T03:15:50.036Z"
37,-0.6167309,-0.33900148,0.6931201,353,"2022-12-10T03:16:50.598Z"
34,-0.61628175,-0.339917,0.69218016,353,"2022-12-10T03:17:51.161Z"
32,-0.3845117,-0.8934961,-0.28131348,351,"2022-12-10T03:18:51.723Z"
36,-0.38200927,-0.89062744,-0.29181153,348,"2022-12-10T03:19:52.285Z"
34,-0.3805298,-0.8893994,-0.299104,345,"2022-12-10T03:20:52.847Z"
38,-0.378291,-0.88291746,-0.3224927,342,"2022-12-10T03:21:53.409Z"
43,-0.62331545,-0.41437745,0.6454199,339,"2022-12-10T03:22:53.984Z"
46,-0.6172754,-0.6120679,0.48494384,337,"2022-12-10T03:23:54.546Z"
36,-0.57941407,-0.5430884,0.5937134,336,"2022-12-10T03:24:55.108Z"
41,-0.19179931,0.18370117,0.9491675,334,"2022-12-10T03:25:55.670Z"
38,-0.4981079,-0.48860595,0.7049585,332,"2022-12-10T03:26:56.232Z"
36,-0.49675292,-0.49230468,0.702207,331,"2022-12-10T03:27:56.794Z"
35,-0.49684325,-0.4959839,0.7006152,330,"2022-12-10T03:28:57.357Z"
37,-0.49611816,-0.49758545,0.6996509,330,"2022-12-10T03:29:57.919Z"
37,-0.49619386,-0.4989087,0.69886476,330,"2022-12-10T03:30:58.481Z"
48,-0.63558596,-0.48699462,0.58123046,329,"2022-12-10T03:31:59.052Z"
38,-0.63395506,-0.48345947,0.5856543,329,"2022-12-10T03:32:59.618Z"
34,-0.6355127,-0.48161864,0.5858032,328,"2022-12-10T03:34:00.180Z"
36,-0.6337476,-0.48069093,0.5880005,328,"2022-12-10T03:35:00.742Z"
40,-0.6336939,-0.4795874,0.58952147,328,"2022-12-10T03:36:01.304Z"
40,-0.6268335,-0.47473633,0.6003857,327,"2022-12-10T03:37:01.867Z"
37,-0.6269946,-0.47452638,0.6003906,327,"2022-12-10T03:38:02.429Z"
35,-0.62768066,-0.47564209,0.5983521,327,"2022-12-10T03:39:02.991Z"
38,-0.6260669,-0.47566164,0.600813,326,"2022-12-10T03:40:03.553Z"
40,-0.6261401,-0.4752832,0.60132813,326,"2022-12-10T03:41:04.115Z"
42,-0.6279077,-0.47463867,0.5994556,326,"2022-12-10T03:42:04.690Z"
37,-0.6270874,-0.4753369,0.60053957,325,"2022-12-10T03:43:05.252Z"
40,-0.6276562,-0.47533935,0.59935546,325,"2022-12-10T03:44:05.814Z"
41,-0.6267969,-0.47522217,0.6010132,325,"2022-12-10T03:45:06.376Z"
39,-0.6273022,-0.47500733,0.5999439,325,"2022-12-10T03:46:06.939Z"
39,-0.6260327,-0.47478026,0.60174316,324,"2022-12-10T03:47:07.501Z"
38,-0.6262622,-0.47482422,0.601145,324,"2022-12-10T03:48:08.063Z"
38,-0.6271387,-0.47531494,0.5989917,324,"2022-12-10T03:49:08.625Z"
41,-0.62599367,-0.47479492,0.60126466,324,"2022-12-10T03:50:09.187Z"
35,-0.62645996,-0.474563,0.6013745,324,"2022-12-10T03:51:09.758Z"
63,-0.3759619,0.49641114,0.7557544,323,"2022-12-10T03:52:10.324Z"
41,-0.3735962,0.50855714,0.74850583,320,"2022-12-10T03:53:10.886Z"
43,-0.37105468,0.51184815,0.74796385,319,"2022-12-10T03:54:11.448Z"
40,-0.12251221,-1.0098169,-0.0197583,318,"2022-12-10T03:55:12.010Z"
44,-0.12001709,-1.0052295,0.08784668,317,"2022-12-10T03:56:12.573Z"
38,-0.12044189,-1.0050976,0.0920752,317,"2022-12-10T03:57:13.135Z"
42,-0.11922363,-1.0049634,0.0948999,317,"2022-12-10T03:58:13.697Z"
46,-0.118234865,-1.0048267,0.09479004,317,"2022-12-10T03:59:14.259Z"
43,-0.1064209,-1.0025293,0.12975341,317,"2022-12-10T04:00:14.822Z"
41,-0.10663086,-1.001582,0.13128173,317,"2022-12-10T04:01:15.396Z"
42,-0.106086425,-1.0025048,0.12982911,316,"2022-12-10T04:02:15.958Z"
39,-0.10703369,-1.0018628,0.13249512,316,"2022-12-10T04:03:16.521Z"
41,-0.10665283,-1.0016456,0.13165039,315,"2022-12-10T04:04:17.083Z"
41,-0.105100095,-1.0027051,0.12931152,315,"2022-12-10T04:05:17.645Z"
43,-0.10609375,-1.0024731,0.12800048,315,"2022-12-10T04:06:18.207Z"
51,-0.07816894,-0.9335278,-0.26099855,315,"2022-12-10T04:07:18.769Z"
35,-0.5244214,-0.58488035,0.6079932,314,"2022-12-10T04:08:19.331Z"
35,-0.5233569,-0.5858911,0.6082935,316,"2022-12-10T04:09:19.894Z"
65,0.13567139,-1.0058813,-0.11779297,316,"2022-12-10T04:10:20.464Z"
50,0.15282227,-0.9985278,-0.15886475,318,"2022-12-10T04:11:21.031Z"
44,0.16556884,-0.99186033,-0.18835205,321,"2022-12-10T04:12:21.593Z"
41,0.1776416,-0.9935669,-0.16598633,321,"2022-12-10T04:13:22.155Z"
46,0.17998047,-0.9927539,-0.16655274,324,"2022-12-10T04:14:22.717Z"
43,0.18011963,-0.9929297,-0.16773681,326,"2022-12-10T04:15:23.279Z"
38,0.18141113,-0.99255615,-0.16787842,328,"2022-12-10T04:16:23.841Z"
40,0.18060058,-0.99292237,-0.16884033,329,"2022-12-10T04:17:24.404Z"
38,0.18161865,-0.99222165,-0.16912109,329,"2022-12-10T04:18:24.966Z"
43,0.18187988,-0.9925586,-0.16962159,330,"2022-12-10T04:19:25.513Z"
48,0.18245362,-0.99222165,-0.17063476,331,"2022-12-10T04:20:26.083Z"
41,0.18250977,-0.9917627,-0.1716333,332,"2022-12-10T04:21:26.650Z"
42,0.18308838,-0.991355,-0.17227295,332,"2022-12-10T04:22:27.212Z"
53,0.18428712,-0.99159425,-0.17129394,333,"2022-12-10T04:23:27.774Z"
59,0.12288574,-1.0010571,0.15334961,332,"2022-12-10T04:24:28.336Z"
42,0.12570313,-0.99969727,0.15753907,329,"2022-12-10T04:25:28.898Z"
49,0.12622315,-0.99937254,0.1589917,328,"2022-12-10T04:26:29.461Z"
51,0.09081787,-0.999419,0.18049316,327,"2022-12-10T04:27:30.023Z"
51,0.13135499,-0.9998608,0.15415527,324,"2022-12-10T04:28:30.585Z"
50,0.13189942,-0.99999756,0.15430908,325,"2022-12-10T04:29:31.147Z"
57,0.109833986,-0.9965869,0.18483399,325,"2022-12-10T04:30:31.722Z"
44,0.11026611,-0.99637204,0.18548095,324,"2022-12-10T04:31:32.284Z"
45,0.11108643,-0.9961597,0.18658692,324,"2022-12-10T04:32:32.846Z"
35,-0.20447022,0.0031860352,-0.99003416,326,"2022-12-10T04:33:33.408Z"
42,-0.20372315,0.011088867,-0.99013186,328,"2022-12-10T04:34:33.970Z"
34,0.15187745,-0.35182372,-0.9453125,328,"2022-12-10T04:35:34.533Z"
45,0.15206298,-0.34992188,-0.94611573,330,"2022-12-10T04:36:35.095Z"
60,0.3363867,-0.37012208,0.8740869,332,"2022-12-10T04:37:35.657Z"
52,0.6656177,0.16713624,0.7370679,332,"2022-12-10T04:38:36.219Z"
53,0.5611035,0.6279687,0.53889894,331,"2022-12-10T04:39:36.790Z"
59,0.41881347,0.57369876,0.69858885,330,"2022-12-10T04:40:37.356Z"
48,0.4390918,0.5404394,0.7147803,329,"2022-12-10T04:41:37.918Z"
50,0.35791504,0.3896997,0.84389895,328,"2022-12-10T04:42:38.465Z"
72,0.019851074,0.6929663,-0.7561939,324,"2022-12-10T04:43:39.027Z"
83,0.89401364,0.46288818,0.10193359,324,"2022-12-10T04:44:39.589Z"
68,0.74305177,0.6485034,0.26246095,324,"2022-12-10T04:45:40.151Z"
56,0.042373046,0.95825684,0.2509668,321,"2022-12-10T04:46:40.714Z"
53,-0.1450708,0.8459277,0.484646,320,"2022-12-10T04:47:41.276Z"
57,0.028447265,0.9179834,0.36710694,317,"2022-12-10T04:48:41.838Z"
58,0.046938475,0.84064454,0.51710206,314,"2022-12-10T04:49:42.400Z"
81,-0.10122314,0.82124513,0.46641845,316,"2022-12-10T04:50:42.962Z"
93,-0.6886231,0.61125,0.34964356,316,"2022-12-10T04:51:43.524Z"
70,0.97180665,0.2807202,0.17882812,317,"2022-12-10T04:52:44.087Z"
40,0.3500244,0.74552,-0.57935303,316,"2022-12-10T04:53:44.649Z"
44,0.42114013,0.75591063,-0.5158179,319,"2022-12-10T04:54:45.211Z"
46,0.41066894,0.787666,-0.47309083,321,"2022-12-10T04:55:45.773Z"
44,0.38200438,0.7773828,-0.5109546,323,"2022-12-10T04:56:46.335Z"
49,0.33441406,0.70770264,-0.632771,325,"2022-12-10T04:57:46.897Z"
42,0.3302246,0.73859864,-0.59693116,327,"2022-12-10T04:58:47.460Z"
42,0.32593995,0.73857176,-0.6004126,329,"2022-12-10T04:59:48.022Z"
41,0.2253955,0.95402586,0.16693115,333,"2022-12-10T05:00:48.584Z"
41,0.11693848,0.98668945,0.008269043,334,"2022-12-10T05:01:49.146Z"
49,0.3236035,0.89271,-0.31969482,335,"2022-12-10T05:02:49.708Z"
41,0.24333496,0.48882812,0.828894,334,"2022-12-10T05:03:50.271Z"
39,-0.08560547,0.46062988,0.81104004,334,"2022-12-10T05:04:50.833Z"
55,0.6986377,0.6298926,0.34849608,334,"2022-12-10T05:05:51.395Z"
65,0.8616064,0.17604248,0.45029053,332,"2022-12-10T05:06:51.957Z"
57,0.3846411,0.8264307,-0.4233789,330,"2022-12-10T05:07:52.519Z"
41,0.3506836,0.8442969,-0.41565675,330,"2022-12-10T05:08:53.081Z"
56,-0.39789796,0.8695581,0.22846192,331,"2022-12-10T05:09:53.644Z"
63,-0.49347657,0.671438,0.48286378,330,"2022-12-10T05:10:54.206Z"
62,0.83250487,-0.05848877,0.65452147,328,"2022-12-10T05:11:54.768Z"
61,-0.42549315,0.7255078,0.5027051,325,"2022-12-10T05:12:55.330Z"
59,-0.36963135,0.77466553,0.47145507,324,"2022-12-10T05:13:55.892Z"
60,-0.4404663,0.8802124,0.03180664,322,"2022-12-10T05:14:56.454Z"
56,-0.30210936,0.91371095,0.20803466,320,"2022-12-10T05:15:57.017Z"
60,-0.39493653,0.8644409,0.2477002,318,"2022-12-10T05:16:57.579Z"
60,-0.23226075,0.9510596,0.12093017,317,"2022-12-10T05:17:58.141Z"
60,-0.37743652,0.68706787,0.5867163,316,"2022-12-10T05:18:58.703Z"
59,-0.31098878,0.9377832,-0.008215332,315,"2022-12-10T05:19:59.265Z"
58,-0.47738037,0.81317383,0.2662671,313,"2022-12-10T05:20:59.827Z"
64,-0.43458983,0.76648927,-0.45979735,312,"2022-12-10T05:22:00.390Z"
58,-0.46016845,0.87064695,0.031999514,311,"2022-12-10T05:23:00.952Z"
59,-0.47859132,0.85978514,-0.06270508,310,"2022-12-10T05:24:01.514Z"
55,-0.47345948,0.8629004,0.005498047,310,"2022-12-10T05:25:02.076Z"
53,-0.4896411,0.85257566,0.032490235,312,"2022-12-10T05:26:02.638Z"
50,-0.5062695,0.84444094,0.0006420899,314,"2022-12-10T05:27:03.200Z"
55,-0.49057373,0.8522754,0.024897462,316,"2022-12-10T05:28:03.763Z"
52,-0.50622314,0.8440576,0.007607422,318,"2022-12-10T05:29:04.325Z"
57,-0.9287671,0.27870604,0.14233154,316,"2022-12-10T05:30:04.887Z"
50,-0.6717895,0.42156982,0.5700269,314,"2022-12-10T05:31:05.449Z"
50,-0.7120166,0.36691406,0.5571973,316,"2022-12-10T05:32:06.011Z"
51,-0.6983301,0.44819093,0.514436,315,"2022-12-10T05:33:06.573Z"
68,0.5742969,0.705105,0.49198973,314,"2022-12-10T05:34:07.136Z"
79,0.19695069,0.73217773,-0.66759765,313,"2022-12-10T05:35:07.698Z"
72,-0.018295899,0.9555225,-0.27882567,313,"2022-12-10T05:36:08.260Z"
52,-0.027353516,0.9533667,-0.28591797,312,"2022-12-10T05:37:08.822Z"
50,-0.020498047,0.9472119,-0.31044433,312,"2022-12-10T05:38:09.385Z"
54,-0.07002685,0.92400634,-0.36623535,312,"2022-12-10T05:39:09.947Z"
57,-0.062441405,0.86110353,-0.5014795,312,"2022-12-10T05:40:10.509Z"
53,-0.1500879,0.9755835,-0.08829834,312,"2022-12-10T05:41:11.071Z"
52,-0.09755127,0.9296509,-0.34230223,312,"2022-12-10T05:42:11.633Z"
57,-0.121186525,0.97321534,0.10188477,311,"2022-12-10T05:43:12.195Z"
56,-0.12639648,0.9339941,-0.3183203,312,"2022-12-10T05:44:12.758Z"
67,-0.15539795,0.960061,-0.19357422,313,"2022-12-10T05:45:13.320Z"
51,-0.12898438,0.95777345,-0.2296875,314,"2022-12-10T05:46:13.882Z"
54,-0.082060546,0.95283693,-0.27461913,315,"2022-12-10T05:47:14.444Z"
61,-0.10802735,0.9766455,-0.10334961,315,"2022-12-10T05:48:15.006Z"
60,-0.13491455,0.94922364,-0.2526294,316,"2022-12-10T05:49:15.568Z"
53,-0.0861377,0.94777834,-0.28838623,316,"2022-12-10T05:50:16.131Z"
64,-0.09671631,0.9795166,0.020688476,317,"2022-12-10T05:51:16.693Z"
63,0.98641115,-0.25719237,-0.09219238,317,"2022-12-10T05:52:17.255Z"
76,0.86194336,0.43613526,-0.2914844,317,"2022-12-10T05:53:17.817Z"
77,0.3800171,0.9281006,0.17531738,317,"2022-12-10T05:54:18.379Z"
72,0.6033105,0.6469971,0.30876952,315,"2022-12-10T05:55:18.942Z"
65,-0.9356934,0.2717627,-0.14496583,314,"2022-12-10T05:56:19.504Z"
44,-0.9236206,0.33129883,0.03803711,314,"2022-12-10T05:57:20.066Z"
49,-0.9625,0.08313476,0.1729541,314,"2022-12-10T05:58:20.628Z"
45,-0.9347363,0.2960083,0.051535644,313,"2022-12-10T05:59:21.190Z"
49,-0.86316407,-0.10791504,0.45444337,313,"2022-12-10T06:00:21.752Z"
48,-0.8640698,-0.1618457,0.43915284,312,"2022-12-10T06:01:22.315Z"
50,-0.19542481,0.55697024,0.78536135,309,"2022-12-10T06:02:22.877Z"
49,-0.94021726,0.28082764,-0.06845703,310,"2022-12-10T06:03:23.439Z"
49,-0.9267944,0.15650879,0.2759546,311,"2022-12-10T06:04:24.001Z"
54,-0.89573973,0.37777343,-0.15658203,311,"2022-12-10T06:05:24.563Z"
47,0.89228517,0.2569385,-0.4184448,310,"2022-12-10T06:06:25.125Z"
49,0.070957035,0.76506346,0.6212378,307,"2022-12-10T06:07:25.688Z"
54,0.10009033,0.60773927,0.7740772,307,"2022-12-10T06:08:26.250Z"
55,0.35938722,0.66261965,0.5056616,307,"2022-12-10T06:09:26.812Z"
53,-0.026545411,0.51811033,0.83895755,305,"2022-12-10T06:10:27.374Z"
67,-0.034372557,0.49957764,0.84965575,306,"2022-12-10T06:11:27.937Z"
45,-0.032004394,0.5081299,0.8449121,306,"2022-12-10T06:12:28.499Z"
45,-0.024235839,0.5433423,0.8218506,306,"2022-12-10T06:13:29.061Z"
56,-0.8421118,-0.2727759,0.43140382,305,"2022-12-10T06:14:29.623Z"
44,-0.8351782,-0.30332765,0.42702147,305,"2022-12-10T06:15:30.185Z"
46,-0.92281497,0.32069093,0.089819334,305,"2022-12-10T06:16:30.747Z"
52,-0.32693115,0.924646,-0.045527343,305,"2022-12-10T06:17:31.310Z"
45,-0.900271,0.100424804,0.37344727,303,"2022-12-10T06:18:31.872Z"
47,-0.9158545,0.28498292,0.19971192,304,"2022-12-10T06:19:32.434Z"
52,-0.9148364,0.33228028,0.1197461,303,"2022-12-10T06:20:32.996Z"
58,-0.20352784,0.56770265,0.77597654,300,"2022-12-10T06:21:33.558Z"
53,-0.06845703,0.42838868,0.8667578,301,"2022-12-10T06:22:34.121Z"
47,0.039660644,0.45766112,0.87470216,302,"2022-12-10T06:23:34.683Z"
49,-0.12884033,0.75527835,0.6172095,301,"2022-12-10T06:24:35.245Z"
63,0.042685546,0.53256345,0.8310669,301,"2022-12-10T06:25:35.807Z"
52,-0.89619386,0.24458008,0.307583,300,"2022-12-10T06:26:36.369Z"
59,0.04178711,0.5705005,0.8038647,300,"2022-12-10T06:27:36.931Z"
47,0.034433592,0.5891455,0.7911597,299,"2022-12-10T06:28:37.494Z"
59,-0.3549634,0.5564355,0.72164553,296,"2022-12-10T06:29:38.056Z"
47,-0.94471437,0.2353833,0.11598877,296,"2022-12-10T06:30:38.618Z"
48,-0.9269287,0.31104004,0.07885742,298,"2022-12-10T06:31:39.180Z"
48,0.052785646,0.56985354,0.8044507,298,"2022-12-10T06:32:39.742Z"
50,0.03844971,0.5448267,0.82173586,297,"2022-12-10T06:33:40.305Z"
48,0.0060009765,0.63566405,0.7546118,297,"2022-12-10T06:34:40.867Z"
51,0.012709961,0.6278393,0.7612085,296,"2022-12-10T06:35:41.429Z"
65,0.023630371,0.3269336,0.9331128,296,"2022-12-10T06:36:41.991Z"
59,0.035578612,0.616145,0.7714575,296,"2022-12-10T06:37:42.553Z"
55,-0.7591406,-0.2545703,0.57127684,295,"2022-12-10T06:38:43.116Z"
52,-0.54139894,0.57214355,0.5768823,294,"2022-12-10T06:39:43.678Z"
46,-0.92400634,0.31496093,0.09559082,294,"2022-12-10T06:40:44.240Z"
44,0.010998535,0.9520508,0.26916993,295,"2022-12-10T06:41:44.802Z"
46,-0.018859863,0.8227222,0.543667,294,"2022-12-10T06:42:45.365Z"
48,0.051101074,0.75289553,0.6375244,294,"2022-12-10T06:43:45.927Z"
71,0.69929934,0.7223755,0.0066552735,293,"2022-12-10T06:44:46.489Z"
43,-0.078647465,0.53082275,0.8263403,292,"2022-12-10T06:45:47.051Z"
48,0.049284667,0.6356787,0.75470215,292,"2022-12-10T06:46:47.613Z"
42,0.035998534,0.7852222,0.5980933,292,"2022-12-10T06:47:48.176Z"
45,0.05312988,0.52002686,0.8386035,292,"2022-12-10T06:48:48.738Z"
44,-0.8850537,0.2446997,0.33458495,292,"2022-12-10T06:49:49.300Z"
50,-0.6763965,-0.45404541,0.56152344,292,"2022-12-10T06:50:49.862Z"
42,-0.6834302,-0.44537598,0.5591724,292,"2022-12-10T06:51:50.424Z"
42,-0.71959716,0.020166015,0.6631128,291,"2022-12-10T06:52:50.986Z"
59,0.047299806,0.5799902,0.8003369,290,"2022-12-10T06:53:51.549Z"
49,-0.19224365,0.952688,0.1332959,290,"2022-12-10T06:54:52.111Z"
43,-0.9034497,0.1994873,0.31820068,289,"2022-12-10T06:55:52.673Z"
49,-0.9136108,0.091416016,0.340083,289,"2022-12-10T06:56:53.235Z"
48,-0.8491748,0.29645753,0.3820923,289,"2022-12-10T06:57:53.797Z"
49,-0.10750976,0.5331299,0.82072264,288,"2022-12-10T06:58:54.360Z"
47,0.0542334,0.5833203,0.79541993,289,"2022-12-10T06:59:54.922Z"
61,-0.36358398,0.5869873,0.53868407,288,"2022-12-10T07:00:55.484Z"
59,-0.6611841,-0.3497583,0.6397632,289,"2022-12-10T07:01:56.046Z"
50,0.055651855,0.53816164,0.82629883,288,"2022-12-10T07:02:56.608Z"
64,0.1627881,0.5620483,0.79958254,288,"2022-12-10T07:03:57.171Z"
50,0.06364258,0.6194019,0.76701415,287,"2022-12-10T07:04:57.733Z"
45,0.059279785,0.5683228,0.80523926,287,"2022-12-10T07:05:58.295Z"
49,0.056691896,0.5497143,0.8189453,288,"2022-12-10T07:06:58.857Z"
50,-0.0990625,0.23069091,0.93610597,288,"2022-12-10T07:07:59.419Z"
62,-0.14730957,0.9646533,-0.17638671,288,"2022-12-10T07:08:59.982Z"
52,-0.12533692,0.9730713,-0.14586914,288,"2022-12-10T07:10:00.544Z"
56,0.003491211,0.99065185,0.039589845,288,"2022-12-10T07:11:01.106Z"
47,-0.28104493,0.66207767,0.67141116,287,"2022-12-10T07:12:01.668Z"
56,0.39176026,0.8998779,0.17601563,288,"2022-12-10T07:13:02.230Z"
62,0.31286132,0.9426001,-0.114125974,290,"2022-12-10T07:14:02.793Z"
63,-0.9121484,0.08721436,0.33747804,291,"2022-12-10T07:15:03.355Z"
42,-0.2975708,0.4878784,0.71673095,294,"2022-12-10T07:16:03.917Z"
40,-0.83044434,-0.044384766,0.5192041,293,"2022-12-10T07:17:04.479Z"
70,0.714519,0.39688477,0.5345508,293,"2022-12-10T07:18:05.042Z"
77,-0.15964599,0.91695803,-0.35176268,292,"2022-12-10T07:19:05.604Z"
39,-0.1264624,0.92739505,-0.33783937,291,"2022-12-10T07:20:06.166Z"
40,-0.10449951,0.8760083,-0.46214354,291,"2022-12-10T07:21:06.728Z"
43,-0.08732666,0.86498535,-0.48922607,291,"2022-12-10T07:22:07.290Z"
56,-0.1385669,0.77743894,0.19310059,291,"2022-12-10T07:23:07.852Z"
40,0.10307373,0.8592505,-0.5038867,291,"2022-12-10T07:24:08.415Z"
39,-0.04048828,0.80540526,-0.5897534,291,"2022-12-10T07:25:08.977Z"
41,0.060844727,0.86791503,-0.49299073,292,"2022-12-10T07:26:09.539Z"
42,-0.62579834,0.6995117,-0.13852295,292,"2022-12-10T07:27:10.101Z"
41,-0.6754834,0.3790332,0.5938135,293,"2022-12-10T07:28:10.663Z"
42,-0.72157717,-0.24872315,0.62152344,294,"2022-12-10T07:29:11.226Z"
43,-0.9084277,0.3651953,0.053945314,293,"2022-12-10T07:30:11.788Z"
42,-0.90117186,0.38943604,-0.043642577,293,"2022-12-10T07:31:12.350Z"
44,-0.9147656,0.35189453,0.049641114,294,"2022-12-10T07:32:12.912Z"
40,-0.935437,0.29910645,0.023879394,294,"2022-12-10T07:33:13.474Z"
42,-0.9193042,0.32964844,0.0906665,294,"2022-12-10T07:34:14.037Z"
43,-0.92267334,0.31432372,0.10773682,293,"2022-12-10T07:35:14.599Z"
43,0.08519043,0.8801343,0.46176514,293,"2022-12-10T07:36:15.161Z"
42,-0.004628906,0.7847827,-0.62317383,292,"2022-12-10T07:37:15.723Z"
48,0.06976563,0.91959715,0.36106202,292,"2022-12-10T07:38:16.285Z"
52,0.53546387,0.38133058,0.7578662,291,"2022-12-10T07:39:16.848Z"
55,0.07767334,0.88369143,0.44048584,288,"2022-12-10T07:40:17.410Z"
37,0.08126953,0.84275633,0.51163816,287,"2022-12-10T07:41:17.972Z"
37,0.056330565,0.8720288,0.4639673,291,"2022-12-10T07:42:18.534Z"
40,0.06586181,0.82115966,0.5456665,290,"2022-12-10T07:43:19.096Z"
40,0.088098146,0.74690676,0.6420288,290,"2022-12-10T07:44:19.659Z"
42,0.015834961,0.97056884,0.19460449,290,"2022-12-10T07:45:20.221Z"
35,0.0060424805,0.94563967,-0.31658202,289,"2022-12-10T07:46:20.783Z"
37,0.07571533,0.9613501,0.21643555,290,"2022-12-10T07:47:21.345Z"
39,-0.61511475,-0.076379396,0.76105225,291,"2022-12-10T07:48:21.907Z"
39,-0.62559813,-0.06607178,0.753208,292,"2022-12-10T07:49:22.469Z"
37,-0.71713865,-0.039611816,0.6675049,292,"2022-12-10T07:50:23.032Z"
38,0.06499756,0.9370386,0.31393066,289,"2022-12-10T07:51:23.594Z"
66,-0.18775147,0.72096926,0.6472339,289,"2022-12-10T07:52:24.156Z"
69,0.85954833,0.347041,0.40077636,290,"2022-12-10T07:53:24.719Z"
69,0.8972534,0.12449463,0.4507129,290,"2022-12-10T07:54:25.281Z"
78,0.38221192,0.8476587,0.22315186,289,"2022-12-10T07:55:25.843Z"
67,0.8682349,0.5137744,0.072270505,289,"2022-12-10T07:56:26.405Z"
64,0.4952002,0.39270753,-0.80424315,290,"2022-12-10T07:57:26.967Z"
69,0.22394532,0.7502051,-0.596062,289,"2022-12-10T07:58:27.529Z"
70,0.88048583,0.0013134766,-0.51752687,288,"2022-12-10T07:59:28.092Z"
98,0.36966065,0.75196046,0.5330835,288,"2022-12-10T08:00:28.654Z"
85,0.34657714,0.62120605,-0.7088574,288,"2022-12-10T08:01:29.216Z"
84,0.2394751,0.563252,0.7232495,287,"2022-12-10T08:02:29.778Z"
92,0.59861815,0.83144534,-0.08202148,288,"2022-12-10T08:03:30.340Z"
91,0.453313,0.84436035,0.12855957,288,"2022-12-10T08:04:30.903Z"
96,0.1700171,0.66024417,0.44459715,288,"2022-12-10T08:05:31.465Z"
91,1.0127172,0.1434668,0.09968994,288,"2022-12-10T08:06:32.027Z"
91,0.46682128,0.602771,0.57149416,289,"2022-12-10T08:07:32.589Z"
96,0.31126952,0.95517576,-0.1222876,287,"2022-12-10T08:08:33.151Z"
101,0.027585449,0.9942163,0.011958008,286,"2022-12-10T08:09:33.714Z"
84,-0.04191162,0.98315185,0.11569824,288,"2022-12-10T08:10:34.276Z"
92,0.95033205,0.16584472,0.32261476,288,"2022-12-10T08:11:34.838Z"
86,0.18131104,0.66000974,0.14274903,288,"2022-12-10T08:12:35.400Z"
89,0.44180664,0.815979,-0.39614502,286,"2022-12-10T08:13:35.962Z"
92,0.68172854,0.7707324,0.131604,289,"2022-12-10T08:14:36.525Z"
83,0.8350513,0.7135376,0.13748047,289,"2022-12-10T08:15:37.087Z"
58,0.2012085,0.8518091,0.44906494,289,"2022-12-10T08:16:37.649Z"
64,-0.21945801,0.96411866,0.0019189453,289,"2022-12-10T08:17:38.211Z"
75,0.37072998,0.8213989,0.33644775,289,"2022-12-10T08:18:38.773Z"
67,-0.16844238,0.8995923,-0.391687,288,"2022-12-10T08:19:39.336Z"
79,0.21621582,0.26045167,0.9604126,287,"2022-12-10T08:20:39.898Z"
93,0.54222655,0.7867041,0.31654298,310,"2022-12-10T08:21:40.459Z"
56,0.5305176,0.690459,0.39827392,320,"2022-12-10T08:22:41.021Z"
68,0.8408911,0.57450926,0.021171875,326,"2022-12-10T08:23:41.584Z"
61,0.5907178,0.790896,-0.16472413,331,"2022-12-10T08:24:42.146Z"
62,-0.5336475,0.738667,0.048759766,336,"2022-12-10T08:25:42.708Z"
82,0.06429199,0.7176904,0.5287671,338,"2022-12-10T08:26:43.270Z"
84,0.13830078,0.9340283,-0.33266357,331,"2022-12-10T08:27:43.832Z"
87,0.43855467,0.831333,0.32404786,340,"2022-12-10T08:28:44.394Z"
47,0.9572876,0.3322168,0.04284912,344,"2022-12-10T08:29:44.956Z"
64,0.24996094,0.7751148,0.17973389,339,"2022-12-10T08:30:45.519Z"
70,0.99643797,0.30477783,0.108041994,346,"2022-12-10T08:31:46.081Z"
76,-0.058217775,0.9091968,0.37498048,343,"2022-12-10T08:32:46.643Z"
85,0.29284912,0.77008545,0.5370581,349,"2022-12-10T08:33:47.205Z"
81,0.3224292,0.7570068,0.5456616,351,"2022-12-10T08:34:47.767Z"
73,0.72804934,0.23455077,0.6598315,352,"2022-12-10T08:35:48.329Z"
78,0.8358252,0.4508618,0.33471435,357,"2022-12-10T08:36:48.891Z"
81,1.004248,0.16171142,0.036689453,356,"2022-12-10T08:37:49.453Z"
62,0.97198,0.24811035,0.14624023,361,"2022-12-10T08:38:50.015Z"
56,0.9772705,0.19091308,0.20399658,362,"2022-12-10T08:39:50.578Z"
52,-0.7474194,0.6366089,0.023786621,345,"2022-12-10T08:40:51.140Z"
55,-0.82614017,0.5142114,0.13602296,339,"2022-12-10T08:41:51.703Z"
61,0.39218017,0.9129224,0.11197266,334,"2022-12-10T08:42:52.265Z"
52,0.8819507,0.23096192,0.44851318,328,"2022-12-10T08:43:52.827Z"
52,0.55104494,0.83999753,0.0103833005,325,"2022-12-10T08:44:53.389Z"
65,0.8219165,0.50595456,0.24500488,333,"2022-12-10T08:45:53.950Z"
73,0.1899463,0.70246583,0.6810547,346,"2022-12-10T08:46:54.512Z"
87,-0.12588379,0.9163428,0.36093017,341,"2022-12-10T08:47:55.075Z"
71,0.584834,0.64724123,0.4734302,328,"2022-12-10T08:48:55.637Z"
79,0.90663576,0.32247803,0.32691896,322,"2022-12-10T08:49:56.200Z"
66,-0.07211914,0.8462036,-0.5153955,319,"2022-12-10T08:50:56.762Z"
59,-0.7562036,0.5154297,-0.37148437,317,"2022-12-10T08:51:57.324Z"
66,0.88843995,0.16484863,0.46647948,315,"2022-12-10T08:52:57.886Z"
67,0.08548096,0.97233886,-0.21745117,313,"2022-12-10T08:53:58.448Z"
88,0.66486573,0.7616797,-0.16238526,310,"2022-12-10T08:54:59.010Z"
52,0.8449805,0.5001001,0.23827149,307,"2022-12-10T08:55:59.573Z"
59,0.31880614,0.87797606,-0.35814208,306,"2022-12-10T08:57:00.135Z"
43,-0.06818359,0.91948974,-0.37958252,303,"2022-12-10T08:58:00.697Z"
53,0.4767212,0.7638233,-0.51856446,302,"2022-12-10T08:59:01.259Z"
52,0.30415526,0.94704103,0.08165039,299,"2022-12-10T09:00:01.822Z"
65,0.03376465,0.92772216,-0.0030957032,298,"2022-12-10T09:01:02.384Z"
72,-0.049938966,1.020935,0.004597168,296,"2022-12-10T09:02:02.946Z"
73,0.43014404,0.76586425,0.4080591,293,"2022-12-10T09:03:03.508Z"
73,0.30645508,0.8003467,0.48608643,293,"2022-12-10T09:04:04.070Z"
84,0.3426416,0.91726565,-0.17596924,292,"2022-12-10T09:05:04.632Z"
83,0.58345705,0.59397703,0.55792236,292,"2022-12-10T09:06:05.195Z"
79,0.0860083,0.529331,0.82973146,291,"2022-12-10T09:07:05.757Z"
69,-0.10642822,0.93753415,-0.332583,291,"2022-12-10T09:08:06.319Z"
79,-0.12179199,0.8041162,0.55611086,289,"2022-12-10T09:09:06.881Z"
85,0.12592041,0.94111085,0.29540038,290,"2022-12-10T09:10:07.443Z"
66,0.84597415,0.5075269,-0.25760254,291,"2022-12-10T09:11:08.006Z"
70,0.69106203,0.3163452,0.6552051,290,"2022-12-10T09:12:08.568Z"
68,-0.2910547,0.8646802,-0.39429933,290,"2022-12-10T09:13:09.130Z"
61,-0.42714354,0.8465674,0.25062013,290,"2022-12-10T09:14:09.692Z"
64,0.02482666,0.3876709,0.907749,290,"2022-12-10T09:15:10.254Z"
61,-0.25293458,0.9556665,-0.033828124,291,"2022-12-10T09:16:10.817Z"
69,0.6064038,0.5507519,0.5423315,291,"2022-12-10T09:17:11.378Z"
82,0.42953125,0.55030763,0.77028567,290,"2022-12-10T09:18:11.941Z"
72,-0.3456714,0.7878052,0.47152343,290,"2022-12-10T09:19:12.503Z"
64,-0.5230493,0.5565845,0.60921144,290,"2022-12-10T09:20:13.065Z"
61,-0.48601317,0.78438723,0.29157716,290,"2022-12-10T09:21:13.628Z"
61,-0.38100585,0.8550879,0.29788575,290,"2022-12-10T09:22:14.190Z"
69,-0.5546558,0.5066016,0.633855,289,"2022-12-10T09:23:14.752Z"
66,0.2611328,0.37076172,0.7826318,291,"2022-12-10T09:24:15.314Z"
72,0.8534863,0.5778613,-0.30539796,290,"2022-12-10T09:25:15.876Z"
70,0.7249487,0.67135257,-0.06864746,290,"2022-12-10T09:26:16.439Z"
77,0.33405274,0.67405516,-0.44594482,289,"2022-12-10T09:27:17.000Z"
81,0.5421167,0.8302222,0.17230958,288,"2022-12-10T09:28:17.563Z"
71,0.8207544,0.54394776,0.061704103,288,"2022-12-10T09:29:18.125Z"
70,0.008361816,1.0030127,-0.2307373,288,"2022-12-10T09:30:18.688Z"
77,0.18618408,0.7453442,0.5226636,288,"2022-12-10T09:31:19.250Z"
77,-0.10334472,0.54417235,0.6720264,290,"2022-12-10T09:32:19.812Z"
77,0.17057128,0.6447046,0.7410742,289,"2022-12-10T09:33:20.374Z"
76,0.500271,0.8178931,-0.29588622,290,"2022-12-10T09:34:20.936Z"
76,0.32208496,0.64420897,0.6678687,290,"2022-12-10T09:35:21.498Z"
85,0.013254395,0.4138745,0.8462622,291,"2022-12-10T09:36:22.061Z"
80,0.6980005,0.62052244,0.34722412,292,"2022-12-10T09:37:22.623Z"
95,0.29286376,0.7293091,0.58391845,293,"2022-12-10T09:38:23.185Z"
91,-0.21659912,0.7834863,0.17193115,293,"2022-12-10T09:39:23.747Z"
104,0.51403075,0.8267041,-0.13524415,294,"2022-12-10T09:40:24.309Z"
118,0.9507251,0.37536865,-0.14335938,294,"2022-12-10T09:41:24.872Z"
118,0.7551709,0.57273436,0.032011718,294,"2022-12-10T09:42:25.434Z"
124,0.1901294,0.803999,0.21193604,294,"2022-12-10T09:43:25.996Z"
117,0.7374512,0.6966724,-0.012402344,294,"2022-12-10T09:44:26.558Z"
120,0.7960425,0.58024657,0.14899415,294,"2022-12-10T09:45:27.120Z"
126,0.95233643,0.14529052,-0.2611377,294,"2022-12-10T09:46:27.683Z"
129,-0.25437012,0.9134448,0.2624927,293,"2022-12-10T09:47:28.245Z"
127,0.09060059,0.5133667,0.8353198,295,"2022-12-10T09:48:28.807Z"
99,0.8379541,0.5136206,-0.27100343,295,"2022-12-10T09:49:29.369Z"
94,0.6500244,0.7791919,-0.18451661,296,"2022-12-10T09:50:29.931Z"
97,0.9589966,0.14299317,0.31599367,296,"2022-12-10T09:51:30.494Z"
90,0.9339258,0.06232422,0.39674804,297,"2022-12-10T09:52:31.056Z"
95,-0.00052246096,0.996311,0.022631835,295,"2022-12-10T09:53:31.618Z"
95,0.83697265,0.4314209,0.2191919,293,"2022-12-10T09:54:32.180Z"
92,0.82506835,0.49056396,0.28043213,294,"2022-12-10T09:55:32.742Z"
110,0.93024904,0.18167725,0.30055177,295,"2022-12-10T09:56:33.304Z"
112,0.969917,0.18890136,0.30563477,294,"2022-12-10T09:57:33.867Z"
115,0.65200925,0.39602783,0.6234521,294,"2022-12-10T09:58:34.429Z"
111,1.0368261,0.21468018,0.14064941,293,"2022-12-10T09:59:34.991Z"
151,0.95147705,0.31885254,0.24091065,293,"2022-12-10T10:00:35.553Z"
138,0.9064795,0.23336425,0.30840576,293,"2022-12-10T10:01:36.101Z"
125,0.9588403,0.3256592,0.0951709,293,"2022-12-10T10:02:36.663Z"
158,0.94513184,0.2267456,0.16586426,293,"2022-12-10T10:03:37.225Z"
154,0.876167,0.4223169,0.14195068,292,"2022-12-10T10:04:37.787Z"
162,0.5378052,0.6451953,0.5339624,292,"2022-12-10T10:05:38.334Z"
151,0.9098828,0.22692382,0.30348387,291,"2022-12-10T10:06:38.896Z"
129,0.21947509,0.9283081,0.27442384,289,"2022-12-10T10:07:39.459Z"
118,0.89182615,0.4380078,0.20133057,286,"2022-12-10T10:08:40.021Z"
60,-0.3266089,0.88301516,-0.30898926,283,"2022-12-10T10:09:40.583Z"
72,0.42242432,0.4794287,0.7571411,283,"2022-12-10T10:10:41.145Z"
55,-0.2251123,0.96262205,0.07709228,286,"2022-12-10T10:11:41.708Z"
58,-0.102424316,0.8161304,0.53535646,287,"2022-12-10T10:12:42.270Z"
75,0.07815674,0.9460596,-0.19538574,289,"2022-12-10T10:13:42.817Z"
49,-0.23611572,0.9602832,0.04324463,292,"2022-12-10T10:14:43.379Z"
56,-0.15281005,0.9676855,-0.13121338,294,"2022-12-10T10:15:43.941Z"
57,-0.09741943,0.9544482,-0.27996826,299,"2022-12-10T10:16:44.504Z"
57,-0.18650879,0.97582275,0.043242186,302,"2022-12-10T10:17:45.051Z"
53,0.015429688,0.9377832,-0.35148194,305,"2022-12-10T10:18:45.613Z"
60,-0.07790283,0.91114503,-0.3968408,306,"2022-12-10T10:19:46.175Z"
56,-0.14380616,0.9738672,-0.028156739,309,"2022-12-10T10:20:46.737Z"
60,-0.03116211,0.97885984,-0.16569091,314,"2022-12-10T10:21:47.300Z"
52,0.03403076,0.88716555,-0.46641845,314,"2022-12-10T10:22:47.862Z"
61,-0.18144287,0.93747556,-0.27190918,314,"2022-12-10T10:23:48.424Z"
59,-0.20375733,0.9297412,-0.2933667,315,"2022-12-10T10:24:48.986Z"
52,-0.07700195,0.9372046,-0.33274415,314,"2022-12-10T10:25:49.548Z"
87,0.8490503,-0.5818091,0.0063671875,313,"2022-12-10T10:26:50.110Z"
67,0.68384033,0.7253296,0.16956542,313,"2022-12-10T10:27:50.673Z"
102,0.95873535,0.35773194,0.20330566,311,"2022-12-10T10:28:51.235Z"
93,0.9692773,0.04942383,0.23471923,309,"2022-12-10T10:29:51.797Z"
82,0.93440187,0.17567383,0.2675952,306,"2022-12-10T10:30:52.359Z"
91,1.0107641,0.28890136,0.16314453,306,"2022-12-10T10:31:52.921Z"
81,0.9717041,0.24748535,0.15045655,306,"2022-12-10T10:32:53.484Z"
77,0.9465112,0.35861573,0.10883056,305,"2022-12-10T10:33:54.046Z"
83,-0.13320556,0.9742676,-0.113269046,303,"2022-12-10T10:34:54.608Z"
72,-0.39584717,0.8936133,0.16741699,301,"2022-12-10T10:35:55.170Z"
64,-0.5106421,0.8143994,-0.030341797,300,"2022-12-10T10:36:55.732Z"
55,0.79585695,0.6229932,0.015571289,300,"2022-12-10T10:37:56.294Z"
59,-0.21573243,0.86772215,0.4119116,298,"2022-12-10T10:38:56.857Z"
66,-0.07147461,0.88840085,-0.45077637,295,"2022-12-10T10:39:57.419Z"
56,0.3088208,0.89229494,0.2646704,296,"2022-12-10T10:40:57.981Z"
71,0.9428027,0.40817383,0.20970947,295,"2022-12-10T10:41:58.543Z"
74,0.6668457,0.72943115,0.24019043,295,"2022-12-10T10:42:59.105Z"
61,0.15033692,0.36871582,0.8517725,296,"2022-12-10T10:43:59.668Z"
69,0.22490966,0.96135986,0.123884276,298,"2022-12-10T10:45:00.230Z"
64,-0.114433594,0.7860547,0.19593261,300,"2022-12-10T10:46:00.792Z"
58,-0.14136963,0.7501123,-0.64777344,301,"2022-12-10T10:47:01.354Z"
73,-0.20381592,0.93195313,0.22532226,300,"2022-12-10T10:48:01.917Z"
52,-0.16641602,0.77143556,0.59851074,303,"2022-12-10T10:49:02.479Z"
57,-0.41952148,0.86407226,0.15832764,303,"2022-12-10T10:50:03.041Z"
55,-0.028330078,0.6806177,0.7131299,303,"2022-12-10T10:51:03.603Z"
55,-0.29835692,0.8712134,0.3492456,303,"2022-12-10T10:52:04.165Z"
60,-0.35582274,0.6391626,0.65384275,306,"2022-12-10T10:53:04.727Z"
55,0.06243164,0.81984377,0.54525876,306,"2022-12-10T10:54:05.290Z"
53,0.056340333,0.7875635,0.59317625,306,"2022-12-10T10:55:05.852Z"
56,0.031845704,0.7610962,0.6300635,307,"2022-12-10T10:56:06.414Z"
54,-0.0061352537,0.69863284,0.7085791,307,"2022-12-10T10:57:06.976Z"
57,-0.00011230469,0.7372168,0.6557715,308,"2022-12-10T10:58:07.538Z"
65,-0.8154883,-0.28761962,0.12011231,308,"2022-12-10T10:59:08.100Z"
82,0.9773315,0.27475342,0.26810548,309,"2022-12-10T11:00:08.663Z"
85,0.5531616,0.7343652,0.23697266,307,"2022-12-10T11:01:09.225Z"
86,0.796333,0.47404784,0.13907714,307,"2022-12-10T11:02:09.787Z"
60,0.73797363,0.5162158,-0.412063,306,"2022-12-10T11:03:10.349Z"
72,0.1472583,0.7728345,-0.55059326,307,"2022-12-10T11:04:10.911Z"
76,0.812251,0.5633325,0.11846924,306,"2022-12-10T11:05:11.474Z"
85,0.034240723,0.805813,0.503064,306,"2022-12-10T11:06:12.036Z"
83,0.90356445,0.50255615,0.0913208,305,"2022-12-10T11:07:12.598Z"
99,0.9424145,0.31384522,0.18820313,305,"2022-12-10T11:08:13.160Z"
84,1.0658008,0.35365236,0.18923339,305,"2022-12-10T11:09:13.722Z"
67,0.98263913,0.3574585,0.25425294,303,"2022-12-10T11:10:14.284Z"
74,0.9669458,0.32641113,0.2772998,301,"2022-12-10T11:11:14.847Z"
77,1.0004932,0.3675122,0.3109131,297,"2022-12-10T11:12:15.409Z"
70,1.0528247,0.3938965,0.20671387,295,"2022-12-10T11:13:15.971Z"
78,1.0832543,0.42499512,0.15257569,292,"2022-12-10T11:14:16.533Z"
76,1.0581152,0.40891603,0.21024902,290,"2022-12-10T11:15:17.095Z"
64,0.9394727,0.36947998,0.15778564,289,"2022-12-10T11:16:17.658Z"
72,0.37902588,0.7614307,-0.10157715,290,"2022-12-10T11:17:18.220Z"
82,1.0027198,0.3807959,0.22444825,291,"2022-12-10T11:18:18.782Z"
83,1.0290723,0.37190428,0.25745118,291,"2022-12-10T11:19:19.344Z"
79,1.015796,0.33418214,0.2390747,290,"2022-12-10T11:20:19.906Z"
79,1.0277857,0.3553589,0.16867432,289,"2022-12-10T11:21:20.469Z"
77,1.0051246,0.35567138,0.17826416,288,"2022-12-10T11:22:21.031Z"
76,-0.1305249,0.95227784,0.30355713,286,"2022-12-10T11:23:21.593Z"
80,-0.054484863,0.36090577,0.8850391,284,"2022-12-10T11:24:22.155Z"
79,0.9558203,0.33057863,0.1501245,283,"2022-12-10T11:25:22.717Z"
67,0.36989012,0.6894214,0.616958,282,"2022-12-10T11:26:23.280Z"
69,-0.26401123,0.9194995,-0.09377197,282,"2022-12-10T11:27:23.842Z"
60,0.46107665,0.53623533,0.7066895,281,"2022-12-10T11:28:24.404Z"
65,0.77560306,0.64403075,0.32431397,282,"2022-12-10T11:29:24.966Z"
68,0.8584839,0.45243165,0.32517335,280,"2022-12-10T11:30:25.528Z"
64,0.6482495,0.8064404,-0.21079345,280,"2022-12-10T11:31:26.091Z"
76,-0.36973876,0.39694825,0.7346997,279,"2022-12-10T11:32:26.653Z"
78,-0.6218433,0.37501952,0.26530275,278,"2022-12-10T11:33:27.215Z"
73,-0.5397583,0.6618921,0.4644922,279,"2022-12-10T11:34:27.777Z"
70,-0.40613282,0.88537353,-0.17054687,280,"2022-12-10T11:35:28.339Z"
62,-0.58974856,0.780459,-0.112700194,280,"2022-12-10T11:36:28.902Z"
55,-0.4183203,0.6439429,-0.6416138,280,"2022-12-10T11:37:29.464Z"
65,-0.34777832,0.9050073,-0.20098388,280,"2022-12-10T11:38:30.026Z"
64,-0.7185498,0.57644534,0.33014894,279,"2022-12-10T11:39:30.588Z"
91,-0.5030859,0.7252417,-0.4474365,279,"2022-12-10T11:40:31.150Z"
56,-0.58927244,0.65941405,-0.38511962,279,"2022-12-10T11:41:31.713Z"
61,-0.37758544,0.8932544,-0.19719726,279,"2022-12-10T11:42:32.275Z"
63,-0.37116945,0.90196043,-0.16352783,281,"2022-12-10T11:43:32.837Z"
66,-0.025151366,0.9664746,0.15892822,281,"2022-12-10T11:44:33.399Z"
71,-0.03027832,0.89419675,-0.44447997,281,"2022-12-10T11:45:33.961Z"
66,-0.026547851,0.96727294,0.3156909,281,"2022-12-10T11:46:34.524Z"
54,-0.6696704,0.26994628,0.6603003,280,"2022-12-10T11:47:35.086Z"
45,-0.020524902,0.8512939,0.51610595,282,"2022-12-10T11:48:35.648Z"
55,0.18512207,0.865083,0.451521,281,"2022-12-10T11:49:36.210Z"
49,0.20161133,0.7874609,0.56860596,283,"2022-12-10T11:50:36.772Z"
54,0.05595703,0.69744384,0.69906735,284,"2022-12-10T11:51:37.335Z"
54,-0.4050781,0.87768555,0.18552978,285,"2022-12-10T11:52:37.897Z"
54,-0.34151855,0.66869384,0.6140698,286,"2022-12-10T11:53:38.459Z"
66,-0.52307373,0.6838257,0.16147949,289,"2022-12-10T11:54:39.021Z"
76,0.3686084,0.92251223,0.083041996,291,"2022-12-10T11:55:39.583Z"
74,0.8028662,0.5762207,0.34556884,292,"2022-12-10T11:56:40.146Z"
80,0.7130786,0.59903806,0.3895093,293,"2022-12-10T11:57:40.708Z"
81,0.83862305,0.5315283,0.1677954,294,"2022-12-10T11:58:41.270Z"
82,0.8689453,0.38979003,0.29443115,295,"2022-12-10T11:59:41.832Z"
76,1.0543237,0.367937,0.15753418,295,"2022-12-10T12:00:42.395Z"
77,0.9593994,0.3791919,0.20661621,294,"2022-12-10T12:01:42.957Z"
71,0.9447315,0.5279443,0.093583986,293,"2022-12-10T12:02:43.519Z"
72,1.0368629,0.36075196,0.18962647,293,"2022-12-10T12:03:44.081Z"
64,0.9736645,0.36079103,0.32443848,294,"2022-12-10T12:04:44.643Z"
72,1.009668,0.35120606,0.19691406,294,"2022-12-10T12:05:45.206Z"
80,0.50827634,0.9229565,-0.013266602,293,"2022-12-10T12:06:45.768Z"
68,1.0406299,0.34162354,0.18613282,291,"2022-12-10T12:07:46.330Z"
62,0.94591063,0.34253418,0.22822998,292,"2022-12-10T12:08:46.892Z"
49,-0.5936035,0.4284961,0.64853513,292,"2022-12-10T12:09:47.454Z"
51,0.8245386,0.5504663,0.1923877,292,"2022-12-10T12:10:48.016Z"
53,-0.8182324,-0.20602539,0.45020998,293,"2022-12-10T12:11:48.579Z"
63,-0.73537844,-0.027241211,0.6387866,292,"2022-12-10T12:12:49.141Z"
55,0.9092749,0.4158667,0.21775635,290,"2022-12-10T12:13:49.703Z"
66,0.5605957,0.81173825,0.18197754,289,"2022-12-10T12:14:50.265Z"
60,-0.19773926,0.7563379,0.5948511,287,"2022-12-10T12:15:50.827Z"
76,1.0166748,0.39233154,0.18398437,284,"2022-12-10T12:16:51.390Z"
75,1.0175341,0.36817873,0.19880126,283,"2022-12-10T12:17:51.952Z"
75,0.7071582,0.55411375,-0.25590575,282,"2022-12-10T12:18:52.514Z"
62,-0.8442969,0.4537378,-0.0028759765,280,"2022-12-10T12:19:53.076Z"
58,0.93882567,0.30765626,0.23406982,279,"2022-12-10T12:20:53.638Z"
69,0.9263794,0.3638672,0.1905713,278,"2022-12-10T12:21:54.201Z"
67,0.93102294,0.3617114,0.18397461,277,"2022-12-10T12:22:54.763Z"
78,0.898103,0.47458252,-0.0025805663,275,"2022-12-10T12:23:55.325Z"
74,0.9363379,0.3446338,0.17476563,275,"2022-12-10T12:24:55.887Z"
74,0.9112573,0.40649414,0.18672363,276,"2022-12-10T12:25:56.449Z"
90,0.89284915,0.49908203,0.10707519,279,"2022-12-10T12:26:57.012Z"
102,-0.26433104,0.8245923,0.46407226,276,"2022-12-10T12:27:57.574Z"
54,-0.19477783,0.9731006,0.0526709,279,"2022-12-10T12:28:58.136Z"
62,0.80377686,0.5495703,0.19604003,281,"2022-12-10T12:29:58.698Z"
60,-0.44192627,0.7515796,0.4593994,281,"2022-12-10T12:30:59.260Z"
48,0.9596509,0.32662353,0.14765625,282,"2022-12-10T12:31:59.823Z"
55,-0.7056519,0.48499513,0.19033203,281,"2022-12-10T12:33:00.385Z"
54,-0.2924121,0.76156497,-0.5718555,281,"2022-12-10T12:34:00.947Z"
60,-0.48296875,0.5638867,-0.6665723,281,"2022-12-10T12:35:01.509Z"
45,-0.24284424,0.72031003,-0.6480347,282,"2022-12-10T12:36:02.072Z"
51,-0.41665772,0.6670044,-0.6116016,281,"2022-12-10T12:37:02.634Z"
72,0.8721216,0.21858399,0.36531982,282,"2022-12-10T12:38:03.196Z"
60,0.998584,0.20485596,0.047006834,283,"2022-12-10T12:39:03.758Z"
62,0.93066895,0.35203856,0.20656982,283,"2022-12-10T12:40:04.320Z"
67,0.91613525,0.37531984,0.20952636,285,"2022-12-10T12:41:04.883Z"
52,-0.68723875,0.24926025,0.37121582,287,"2022-12-10T12:42:05.445Z"
72,0.16821778,0.97683835,0.04842285,288,"2022-12-10T12:43:06.007Z"
50,-0.3064453,0.93062013,-0.12628174,290,"2022-12-10T12:44:06.569Z"
56,0.092182614,0.8163208,0.28503662,290,"2022-12-10T12:45:07.131Z"
74,0.8765845,0.25296387,0.4570044,291,"2022-12-10T12:46:07.694Z"
94,0.9266919,0.26837403,0.45700684,291,"2022-12-10T12:47:08.256Z"
60,0.9444751,0.30974364,0.20349854,292,"2022-12-10T12:48:08.818Z"
73,1.0212451,0.42588136,0.23706299,292,"2022-12-10T12:49:09.380Z"
75,1.0437036,0.39535156,0.22791992,291,"2022-12-10T12:50:09.942Z"
86,1.0233837,0.39090332,0.224104,291,"2022-12-10T12:51:10.505Z"
70,0.9224976,0.37889892,0.33228272,290,"2022-12-10T12:52:11.067Z"
75,0.95218015,0.4888135,0.17488281,291,"2022-12-10T12:53:11.629Z"
59,0.31637207,0.7721899,-0.15420654,293,"2022-12-10T12:54:12.191Z"
66,0.89135987,0.2232251,0.40866455,293,"2022-12-10T12:55:12.753Z"
66,-0.144917,0.96775633,0.09270752,295,"2022-12-10T12:56:13.315Z"
78,0.64785886,0.75733644,0.12215332,297,"2022-12-10T12:57:13.878Z"
70,0.65202636,0.37312743,0.66766846,302,"2022-12-10T12:58:14.440Z"
84,0.64675295,0.40329102,0.6720459,305,"2022-12-10T12:59:15.002Z"
86,0.51642334,0.3658545,0.6885791,305,"2022-12-10T13:00:15.564Z"
77,0.53445315,0.5851831,0.61137205,304,"2022-12-10T13:01:16.126Z"
87,0.64673585,0.38157228,0.65932864,303,"2022-12-10T13:02:16.689Z"
87,0.591228,0.46337402,0.66292727,301,"2022-12-10T13:03:17.251Z"
77,0.6287378,0.24430175,0.74754393,298,"2022-12-10T13:04:17.813Z"
49,0.5617163,0.56591797,0.6093848,295,"2022-12-10T13:05:18.375Z"
74,0.9084448,0.40811035,0.41109374,291,"2022-12-10T13:06:18.938Z"
71,0.7192041,0.35158935,0.6256665,290,"2022-12-10T13:07:19.500Z"
96,0.48826903,0.45665282,0.74447024,288,"2022-12-10T13:08:20.062Z"
58,0.64473146,0.4370581,0.6392505,291,"2022-12-10T13:09:20.624Z"
85,0.6300366,0.44125,0.6334619,289,"2022-12-10T13:10:21.186Z"
84,0.5897607,0.48268068,0.6340283,288,"2022-12-10T13:11:21.749Z"
101,0.6699951,0.36861083,0.6645288,286,"2022-12-10T13:12:22.311Z"
77,0.74927,0.6237476,0.2524463,285,"2022-12-10T13:13:22.873Z"
98,-0.3265088,-0.50653076,0.6840503,281,"2022-12-10T13:14:23.435Z"
73,0.6793482,0.4175,0.62031496,279,"2022-12-10T13:15:23.997Z"
69,0.6206372,0.43030518,0.6624341,281,"2022-12-10T13:16:24.560Z"
74,0.6719556,0.38152343,0.6412378,279,"2022-12-10T13:17:25.122Z"
86,0.8506421,0.14762451,0.5360083,278,"2022-12-10T13:18:25.684Z"
96,0.6923584,0.37928712,0.5926538,277,"2022-12-10T13:19:26.246Z"
95,0.61989015,0.3885791,0.626189,275,"2022-12-10T13:20:26.808Z"
124,0.8250977,0.22093017,0.49317628,274,"2022-12-10T13:21:27.371Z"
102,0.67245364,0.3344165,0.6394165,273,"2022-12-10T13:22:27.933Z"
94,0.5756128,0.29891112,0.64976805,271,"2022-12-10T13:23:28.495Z"
78,0.13709229,0.89043945,-0.4390332,271,"2022-12-10T13:24:29.057Z"
70,0.06279297,0.9573828,0.25071535,269,"2022-12-10T13:25:29.619Z"
107,0.6388233,0.38918456,0.6667627,268,"2022-12-10T13:26:30.182Z"
99,0.6183862,0.32108888,0.6303442,267,"2022-12-10T13:27:30.744Z"
91,0.4484204,0.6430444,0.6171436,264,"2022-12-10T13:28:31.305Z"
99,0.61473143,0.40155762,0.6524438,263,"2022-12-10T13:29:31.868Z"
86,0.5881738,0.4422534,0.66177005,264,"2022-12-10T13:30:32.430Z"
108,0.67329836,0.20310791,0.72944826,264,"2022-12-10T13:31:32.993Z"
81,0.6332007,0.5594922,0.5435693,265,"2022-12-10T13:32:33.555Z"
99,0.69283205,0.45433593,0.59025633,265,"2022-12-10T13:33:34.117Z"
90,0.70895267,0.24266845,0.6871338,263,"2022-12-10T13:34:34.679Z"
115,0.69797117,0.32331544,0.6495337,264,"2022-12-10T13:35:35.241Z"
98,0.6328125,0.7645923,0.10977051,264,"2022-12-10T13:36:35.804Z"
105,0.60651857,0.4877002,0.62315917,264,"2022-12-10T13:37:36.366Z"
106,0.65985596,0.39794922,0.63611573,264,"2022-12-10T13:38:36.928Z"
103,0.66139406,0.3610742,0.64882326,263,"2022-12-10T13:39:37.490Z"
84,0.55662596,0.6007788,0.5736841,263,"2022-12-10T13:40:38.053Z"
96,-0.048383787,0.036450196,0.8601074,265,"2022-12-10T13:41:38.615Z"
97,0.70932126,0.25285888,0.66711915,266,"2022-12-10T13:42:39.177Z"
84,0.40672362,0.88114256,-0.1809082,267,"2022-12-10T13:43:39.739Z"
75,0.43586913,0.5503467,0.70802003,268,"2022-12-10T13:44:40.302Z"
76,0.041960448,0.69218016,0.71000487,269,"2022-12-10T13:45:40.864Z"
67,0.93647707,0.39449707,-0.022004394,270,"2022-12-10T13:46:41.426Z"
77,0.067128904,0.9445605,-0.38069335,268,"2022-12-10T13:47:41.988Z"
89,0.7727978,0.62164307,0.085061036,269,"2022-12-10T13:48:42.550Z"
82,-0.081933595,0.434895,0.789895,271,"2022-12-10T13:49:43.113Z"
103,0.7103174,0.52284425,0.45526856,274,"2022-12-10T13:50:43.675Z"
112,0.587002,0.78460693,-0.28124756,278,"2022-12-10T13:51:44.237Z"
106,0.82403564,0.56183594,0.095214844,280,"2022-12-10T13:52:44.799Z"
100,0.9265918,0.3559912,0.2177295,283,"2022-12-10T13:53:45.361Z"
100,0.030637207,0.97440916,-0.069667965,286,"2022-12-10T13:54:45.924Z"
103,1.0078491,-0.067680664,-0.032348633,287,"2022-12-10T13:55:46.486Z"
99,-0.3252588,0.5254321,0.7313672,286,"2022-12-10T13:56:47.048Z"
104,0.512395,0.35094726,0.71195555,287,"2022-12-10T13:57:47.610Z"
107,0.79837155,0.55549073,-0.27871093,289,"2022-12-10T13:58:48.172Z"
110,0.5726953,0.48953858,0.6709229,292,"2022-12-10T13:59:48.735Z"
106,0.78796875,0.17341797,0.6518091,292,"2022-12-10T14:00:49.297Z"
105,0.67953855,0.42994142,0.59925294,290,"2022-12-10T14:01:49.859Z"
95,1.1093286,0.4434375,0.18474853,288,"2022-12-10T14:02:50.421Z"
104,1.1262939,0.40318847,0.16185059,288,"2022-12-10T14:03:50.983Z"
116,0.88490725,0.5033179,0.01293457,288,"2022-12-10T14:04:51.546Z"
130,1.0449365,0.36838135,0.2423999,289,"2022-12-10T14:05:52.108Z"
114,0.86339355,0.43464357,0.29533446,289,"2022-12-10T14:06:52.670Z"
109,0.96833986,0.4298169,0.19272949,289,"2022-12-10T14:07:53.232Z"
116,0.50499755,0.8678369,0.22530274,290,"2022-12-10T14:08:53.794Z"
118,0.47259766,0.88789064,0.10060791,291,"2022-12-10T14:09:54.357Z"
99,0.943877,0.31623536,0.18572754,289,"2022-12-10T14:10:54.919Z"
90,0.0072485353,0.9925537,-0.034094237,289,"2022-12-10T14:11:55.481Z"
75,-0.61408937,0.7167163,0.24569336,288,"2022-12-10T14:12:56.043Z"
70,0.14338379,0.6305591,0.7501123,287,"2022-12-10T14:13:56.605Z"
58,0.09614746,0.79987794,0.57390624,288,"2022-12-10T14:14:57.168Z"
69,0.13772461,0.7135034,0.67259765,289,"2022-12-10T14:15:57.730Z"
62,0.06972168,0.9393042,0.30761963,291,"2022-12-10T14:16:58.292Z"
64,-0.27201173,0.89076906,0.30845702,292,"2022-12-10T14:17:58.854Z"
71,-0.28786376,0.6944751,0.6397095,294,"2022-12-10T14:18:59.416Z"
75,-0.18894286,0.44601318,0.8550708,296,"2022-12-10T14:19:59.979Z"
80,-0.17465088,0.6449121,0.7215723,297,"2022-12-10T14:21:00.541Z"
68,0.057353515,0.7504175,0.6413574,298,"2022-12-10T14:22:01.103Z"
61,0.01596924,0.9372754,0.31750488,300,"2022-12-10T14:23:01.665Z"
61,0.14662842,0.8266943,0.51120114,299,"2022-12-10T14:24:02.227Z"
46,0.65093017,0.7220239,-0.2655493,299,"2022-12-10T14:25:02.790Z"
53,0.6758862,0.640249,-0.39256105,300,"2022-12-10T14:26:03.352Z"
51,0.75351804,-0.02395996,0.6785474,301,"2022-12-10T14:27:03.914Z"
52,0.7677124,-0.016950684,0.6619775,300,"2022-12-10T14:28:04.476Z"
66,0.029155273,0.98188233,0.13372558,299,"2022-12-10T14:29:05.023Z"
59,0.46710938,0.86780274,-0.16392823,297,"2022-12-10T14:30:05.585Z"
56,-0.049851075,0.70162845,0.66579103,297,"2022-12-10T14:31:06.148Z"
69,-0.19682617,0.95587647,-0.16988769,296,"2022-12-10T14:32:06.710Z"
55,0.74430174,0.55506104,-0.4034375,297,"2022-12-10T14:33:07.272Z"
57,0.756709,0.5350293,-0.41121337,299,"2022-12-10T14:34:07.834Z"
59,0.91095704,0.3632544,-0.2608716,302,"2022-12-10T14:35:08.396Z"
62,0.7739258,0.660625,0.13446534,304,"2022-12-10T14:36:08.958Z"
63,0.109399416,0.95985353,-0.09233642,306,"2022-12-10T14:37:09.521Z"
82,0.058808595,0.9758545,0.08917236,304,"2022-12-10T14:38:10.083Z"
60,0.9145898,0.4378711,0.035688475,303,"2022-12-10T14:39:10.645Z"
56,0.89683837,0.4537036,0.13173096,302,"2022-12-10T14:40:11.207Z"
69,0.87333006,0.47493407,0.19462402,300,"2022-12-10T14:41:11.770Z"
64,0.9084009,0.43139893,0.124133304,299,"2022-12-10T14:42:12.332Z"
72,0.91731936,0.37179688,0.20889893,298,"2022-12-10T14:43:12.894Z"
81,0.9039624,0.4385864,0.13300294,297,"2022-12-10T14:44:13.456Z"
79,0.77614015,0.648584,-0.0070410157,296,"2022-12-10T14:45:14.018Z"
52,0.8628833,0.529895,-0.044118654,296,"2022-12-10T14:46:14.580Z"
66,0.08474854,0.7109424,-0.709668,296,"2022-12-10T14:47:15.143Z"
58,0.06322022,0.63966066,0.022917481,295,"2022-12-10T14:48:15.705Z"
59,0.91415286,0.42918214,0.070803225,296,"2022-12-10T14:49:16.267Z"
59,0.89183104,0.46594727,0.11671387,297,"2022-12-10T14:50:16.829Z"
68,-0.5040259,0.7648389,-0.38783205,297,"2022-12-10T14:51:17.391Z"
63,0.65547365,0.6891284,0.16792236,297,"2022-12-10T14:52:17.954Z"
56,-0.076511234,0.95341307,-0.27358887,298,"2022-12-10T14:53:18.516Z"
64,0.4432617,0.8170972,-0.38147217,300,"2022-12-10T14:54:19.078Z"
56,-0.001184082,0.90265626,0.3784009,300,"2022-12-10T14:55:19.640Z"
73,0.89260745,0.34252197,0.115,301,"2022-12-10T14:56:20.202Z"
82,0.54873294,0.8209033,-0.0065405276,303,"2022-12-10T14:57:20.765Z"
81,1.0634838,0.37409425,0.15595458,303,"2022-12-10T14:58:21.327Z"
93,1.143645,0.4131836,0.13883789,302,"2022-12-10T14:59:21.889Z"
87,1.0965625,0.39533693,0.17735596,300,"2022-12-10T15:00:22.451Z"
86,1.070747,0.46062988,0.14913087,298,"2022-12-10T15:01:23.013Z"
112,1.1132421,0.37116212,0.20668457,296,"2022-12-10T15:02:23.575Z"
102,1.1319165,0.38471192,0.15231934,295,"2022-12-10T15:03:24.138Z"
111,1.0734302,0.38096678,0.17702393,294,"2022-12-10T15:04:24.700Z"
113,1.1255566,0.38479492,0.14747314,293,"2022-12-10T15:05:25.262Z"
116,1.0519922,0.42526123,0.14753906,291,"2022-12-10T15:06:25.824Z"
110,1.10281,0.3645532,0.18547608,289,"2022-12-10T15:07:26.386Z"
119,1.1044018,0.37353027,0.14864258,287,"2022-12-10T15:08:26.949Z"
115,1.1034424,0.37749267,0.17914794,286,"2022-12-10T15:09:27.511Z"
115,1.1500489,0.38890135,0.19586182,284,"2022-12-10T15:10:28.073Z"
116,1.0389991,0.38300538,0.16855957,282,"2022-12-10T15:11:28.635Z"
125,0.90882814,0.4825,0.21646729,279,"2022-12-10T15:12:29.198Z"
74,0.85329837,0.49608886,0.17633301,279,"2022-12-10T15:13:29.760Z"
83,0.82937014,0.20338379,0.63034666,282,"2022-12-10T15:14:30.322Z"
82,-0.4143286,0.8238403,0.32033202,283,"2022-12-10T15:15:30.884Z"
78,-0.36542237,0.9167139,0.056418456,285,"2022-12-10T15:16:31.446Z"
87,-0.9367456,0.094711915,0.27328858,285,"2022-12-10T15:17:32.009Z"
77,0.10613769,0.7414795,0.64639646,286,"2022-12-10T15:18:32.571Z"
72,-0.2489087,0.7941699,0.5207959,287,"2022-12-10T15:19:33.133Z"
67,-0.21330322,0.7973364,0.53487796,290,"2022-12-10T15:20:33.695Z"
68,0.06261963,0.5580298,0.813291,293,"2022-12-10T15:21:34.257Z"
67,-0.5765283,0.74559814,-0.18898925,294,"2022-12-10T15:22:34.820Z"
73,0.035751954,0.6588696,0.6623682,297,"2022-12-10T15:23:35.382Z"
96,-0.05438965,0.6682031,0.66516113,301,"2022-12-10T15:24:35.944Z"
59,-0.2734131,0.88725096,-0.34747314,303,"2022-12-10T15:25:36.506Z"
56,-0.9154663,-0.018186035,0.35287353,306,"2022-12-10T15:26:37.068Z"
52,-0.9516211,-0.06477783,0.23443115,308,"2022-12-10T15:27:37.630Z"
47,0.052685548,0.7069971,0.62230957,309,"2022-12-10T15:28:38.193Z"
57,-0.10782227,0.22298828,0.95543456,312,"2022-12-10T15:29:38.755Z"
62,0.021174317,0.18949218,0.97073245,317,"2022-12-10T15:30:39.317Z"
49,-0.90575194,0.2090503,0.30397704,317,"2022-12-10T15:31:39.879Z"
50,0.02644287,0.51313967,0.8428735,320,"2022-12-10T15:32:40.441Z"
56,-0.89676756,0.18137208,0.34836182,320,"2022-12-10T15:33:41.004Z"
53,0.0037475587,0.3375293,0.9294824,320,"2022-12-10T15:34:41.566Z"
53,0.00080322265,0.3341284,0.9307153,324,"2022-12-10T15:35:42.128Z"
52,-0.113103025,0.49174803,0.8438159,326,"2022-12-10T15:36:42.690Z"
57,-0.06574951,0.6889453,0.70173097,327,"2022-12-10T15:37:43.252Z"
57,-0.026254883,0.9797778,0.1321582,328,"2022-12-10T15:38:43.814Z"
54,-0.030039063,0.68309325,0.710459,329,"2022-12-10T15:39:44.376Z"
53,0.03859375,0.5344702,0.8287378,330,"2022-12-10T15:40:44.939Z"
59,-0.055249024,0.51416504,0.8378735,331,"2022-12-10T15:41:45.501Z"
59,-0.03841553,0.50561523,0.8459912,331,"2022-12-10T15:42:46.063Z"
64,0.4711499,0.7834277,-0.42070067,331,"2022-12-10T15:43:46.625Z"
53,-0.116660155,0.8067041,0.5474512,333,"2022-12-10T15:44:47.188Z"
51,-0.082092285,0.6184961,0.7615869,334,"2022-12-10T15:45:47.750Z"
50,-0.0886499,0.5024365,0.841001,333,"2022-12-10T15:46:48.312Z"
59,-0.056643065,0.29588377,0.9403784,333,"2022-12-10T15:47:48.874Z"
50,0.013693848,0.3483496,0.92494875,334,"2022-12-10T15:48:49.436Z"
50,-0.8478589,0.025192872,0.4891919,335,"2022-12-10T15:49:49.998Z"
62,-0.05923828,0.75636965,0.62768066,336,"2022-12-10T15:50:50.560Z"
54,-0.05825928,0.64248294,0.74387205,337,"2022-12-10T15:51:51.123Z"
51,-0.014182129,0.5212012,0.83746094,337,"2022-12-10T15:52:51.685Z"
50,0.4758496,0.66573244,-0.59036136,336,"2022-12-10T15:53:52.247Z"
60,-0.048098143,0.514436,0.84230226,337,"2022-12-10T15:54:52.809Z"
53,-0.03130615,0.54062986,0.8224292,338,"2022-12-10T15:55:53.371Z"
52,-0.0812085,0.50341064,0.84184325,337,"2022-12-10T15:56:53.933Z"
50,0.08263916,0.9550122,0.12820801,337,"2022-12-10T15:57:54.496Z"
59,-0.058500975,0.515647,0.83688474,337,"2022-12-10T15:58:55.058Z"
53,-0.01890869,0.62026125,0.76595217,337,"2022-12-10T15:59:55.620Z"
50,-0.10915039,0.6122095,0.7591748,338,"2022-12-10T16:00:56.182Z"
48,-0.035295412,0.6022656,0.7791479,337,"2022-12-10T16:01:56.744Z"
52,-0.02841797,0.6094458,0.7734253,338,"2022-12-10T16:02:57.306Z"
59,-0.9217749,0.24309327,0.22044434,336,"2022-12-10T16:03:57.868Z"
56,-0.041125488,0.60245603,0.7762793,336,"2022-12-10T16:04:58.431Z"
51,-0.036799315,0.60526365,0.778147,337,"2022-12-10T16:05:58.993Z"
51,-0.03211914,0.6037036,0.7786694,337,"2022-12-10T16:06:59.555Z"
55,-0.12138672,0.85099363,0.48069093,336,"2022-12-10T16:08:00.117Z"
78,-0.47995606,0.8076025,0.18656494,336,"2022-12-10T16:09:00.679Z"
81,0.6522876,0.750625,-0.010153809,335,"2022-12-10T16:10:01.241Z"
84,1.1553662,0.4318213,0.19358887,334,"2022-12-10T16:11:01.804Z"
91,1.1978784,0.41917723,0.13956055,332,"2022-12-10T16:12:02.366Z"
94,1.1162182,0.4358301,0.17321044,330,"2022-12-10T16:13:02.928Z"
87,0.41887206,0.60867673,0.6691211,325,"2022-12-10T16:14:03.490Z"
74,0.25405273,0.9531665,0.18223877,322,"2022-12-10T16:15:04.052Z"
108,0.7347998,0.43942872,0.5406763,318,"2022-12-10T16:16:04.615Z"
108,0.8037085,0.20744629,0.5749585,315,"2022-12-10T16:17:05.177Z"
106,0.7867285,0.44517577,0.51584226,310,"2022-12-10T16:18:05.739Z"
121,0.7738257,0.33231446,0.4291284,308,"2022-12-10T16:19:06.301Z"
109,0.71317625,0.68912596,0.15407959,305,"2022-12-10T16:20:06.863Z"
104,0.07863281,0.94596434,-0.10406006,304,"2022-12-10T16:21:07.425Z"
85,1.1342285,0.42562988,0.1653369,304,"2022-12-10T16:22:07.988Z"
89,1.0657129,0.38932618,0.1821582,302,"2022-12-10T16:23:08.550Z"
90,0.47073975,0.796604,0.3997754,299,"2022-12-10T16:24:09.112Z"
84,0.8395825,0.54720706,0.13170166,295,"2022-12-10T16:25:09.674Z"
85,1.031482,0.36672118,0.26750243,295,"2022-12-10T16:26:10.236Z"
94,1.0407788,0.35387695,0.20420898,294,"2022-12-10T16:27:10.799Z"
102,0.6371167,0.3693164,0.6435767,289,"2022-12-10T16:28:11.361Z"
98,0.8110815,0.58225584,0.06387696,290,"2022-12-10T16:29:11.923Z"
101,-0.33425537,0.8793506,0.27171144,289,"2022-12-10T16:30:12.485Z"
106,0.9167041,0.42741212,0.07516846,287,"2022-12-10T16:31:13.047Z"
92,0.9589282,0.38492188,0.034291994,287,"2022-12-10T16:32:13.610Z"
84,0.92161375,0.36026856,0.13396241,286,"2022-12-10T16:33:14.172Z"
83,0.6103174,0.37827882,0.55139405,283,"2022-12-10T16:34:14.734Z"
93,0.343667,0.627522,0.63813967,283,"2022-12-10T16:35:15.296Z"
69,0.94203615,-0.085324705,0.27238768,284,"2022-12-10T16:36:15.858Z"
80,-0.15072998,0.9753784,-0.13355225,283,"2022-12-10T16:37:16.420Z"
76,-0.09692871,0.84267336,-0.31336915,284,"2022-12-10T16:38:16.983Z"
62,-0.019660644,0.99011964,0.00668457,284,"2022-12-10T16:39:17.545Z"
57,0.07969482,0.9665381,0.2043628,283,"2022-12-10T16:40:18.107Z"
63,0.10815185,0.5363037,0.4507544,283,"2022-12-10T16:41:18.669Z"
68,0.902168,0.10384522,0.46134767,284,"2022-12-10T16:42:19.231Z"
75,1.0050561,0.36387208,0.20331055,283,"2022-12-10T16:43:19.794Z"
86,-0.10320557,0.83142823,0.5806128,283,"2022-12-10T16:44:20.356Z"
86,0.5474194,0.83691895,0.18011475,282,"2022-12-10T16:45:20.918Z"
72,0.8405493,0.21385498,0.5963696,281,"2022-12-10T16:46:21.480Z"
53,0.9266602,0.28214845,0.31792724,281,"2022-12-10T16:47:22.042Z"
