"hr","accel_x","accel_y","accel_z","skin_temp","ts"
38,0.46357667,-0.90901613,0.08630859,344,"2022-12-26T00:00:00.829Z"
50,0.650354,-0.35730714,0.6935669,341,"2022-12-26T00:01:01.392Z"
42,-0.04156494,-1.0153711,-0.015771484,335,"2022-12-26T00:02:01.954Z"
39,-0.046489257,-1.0138892,-0.030576171,331,"2022-12-26T00:03:02.516Z"
43,-0.04665039,-1.0155469,-0.014050293,328,"2022-12-26T00:04:03.078Z"
42,-0.046904296,-1.0149609,-0.014956054,326,"2022-12-26T00:05:03.640Z"
41,-0.047443848,-1.0148486,-0.014694824,326,"2022-12-26T00:06:04.203Z"
37,-0.04776367,-1.0147071,-0.01683838,326,"2022-12-26T00:07:04.765Z"
42,-0.047824707,-1.0145434,-0.017282715,326,"2022-12-26T00:08:05.327Z"
45,-0.0485083,-1.015044,-0.017529298,326,"2022-12-26T00:09:05.889Z"
43,-0.04861084,-1.0149047,-0.017612305,326,"2022-12-26T00:10:06.451Z"
49,-0.04863281,-1.0149878,-0.01729248,326,"2022-12-26T00:11:07.014Z"
47,-0.048669435,-1.0150146,-0.017297363,326,"2022-12-26T00:12:07.576Z"
48,-0.049836427,-1.015437,-0.01876709,326,"2022-12-26T00:13:08.138Z"
46,-0.050046388,-1.014956,-0.028159179,326,"2022-12-26T00:14:08.700Z"
49,-0.050439455,-1.0144898,-0.028542481,327,"2022-12-26T00:15:09.275Z"
49,-0.050673828,-1.0148511,-0.028642578,327,"2022-12-26T00:16:09.837Z"
52,-0.050861817,-1.0149024,-0.028623046,328,"2022-12-26T00:17:10.399Z"
49,-0.050388183,-1.0148926,-0.027348632,328,"2022-12-26T00:18:10.962Z"
47,-0.05080078,-1.0145704,-0.029194336,328,"2022-12-26T00:19:11.524Z"
48,-0.05029297,-1.0142895,-0.029060058,328,"2022-12-26T00:20:12.086Z"
45,-0.05065918,-1.0146191,-0.02833496,328,"2022-12-26T00:21:12.648Z"
49,-0.051220704,-1.01396,-0.030048829,329,"2022-12-26T00:22:13.210Z"
45,-0.051108398,-1.0141284,-0.029282227,329,"2022-12-26T00:23:13.773Z"
41,-0.05205078,-1.0148145,-0.030515136,329,"2022-12-26T00:24:14.335Z"
40,-0.051640626,-1.014021,-0.030534668,329,"2022-12-26T00:25:14.897Z"
48,-0.05211914,-1.0147241,-0.030217284,330,"2022-12-26T00:26:15.459Z"
44,-0.052265625,-1.0141357,-0.030573731,330,"2022-12-26T00:27:16.021Z"
49,-0.0524292,-1.0148267,-0.031643067,330,"2022-12-26T00:28:16.584Z"
44,-0.05258789,-1.0142212,-0.031384278,330,"2022-12-26T00:29:17.146Z"
42,-0.05229248,-1.0141236,-0.03208252,330,"2022-12-26T00:30:17.708Z"
42,-0.0515625,-1.0144238,-0.03032959,331,"2022-12-26T00:31:18.270Z"
46,-0.051848143,-1.0151782,-0.029008789,331,"2022-12-26T00:32:18.833Z"
45,-0.052094728,-1.0141944,-0.029892579,331,"2022-12-26T00:33:19.395Z"
41,-0.052766114,-1.0143237,-0.031140137,332,"2022-12-26T00:34:19.969Z"
46,-0.05270508,-1.0141089,-0.031389162,332,"2022-12-26T00:35:20.531Z"
45,-0.052836914,-1.0144556,-0.031179199,333,"2022-12-26T00:36:21.094Z"
45,-0.052946776,-1.0140551,-0.03164795,333,"2022-12-26T00:37:21.656Z"
47,-0.052839354,-1.0142407,-0.033127442,333,"2022-12-26T00:38:22.218Z"
41,-0.053579103,-1.0143554,-0.03378418,333,"2022-12-26T00:39:22.780Z"
43,-0.053188477,-1.0147852,-0.032502443,334,"2022-12-26T00:40:23.343Z"
44,-0.05376709,-1.0143677,-0.03311035,334,"2022-12-26T00:41:23.905Z"
43,-0.053747557,-1.014856,-0.032399904,334,"2022-12-26T00:42:24.467Z"
40,-0.053234864,-1.0142846,-0.033459473,334,"2022-12-26T00:43:25.029Z"
38,-0.0048535154,-1.0101782,-0.12069092,335,"2022-12-26T00:44:25.591Z"
41,-0.0040112305,-1.0101246,-0.120231934,336,"2022-12-26T00:45:26.154Z"
44,-0.0034936524,-1.0107543,-0.12138428,336,"2022-12-26T00:46:26.716Z"
40,0.03567627,-1.0140723,-0.08048828,333,"2022-12-26T00:47:27.278Z"
43,0.03467041,-1.0142212,-0.08310547,332,"2022-12-26T00:48:27.840Z"
46,0.035458986,-1.0133252,-0.08336914,331,"2022-12-26T00:49:28.402Z"
40,0.036379393,-1.0133033,-0.08270752,331,"2022-12-26T00:50:28.965Z"
43,0.03595459,-1.0139405,-0.084934086,331,"2022-12-26T00:51:29.527Z"
43,0.036542967,-1.0138745,-0.08395019,331,"2022-12-26T00:52:30.089Z"
49,0.036782227,-1.0135254,-0.08391846,332,"2022-12-26T00:53:30.664Z"
40,0.036035158,-1.0135351,-0.08643066,331,"2022-12-26T00:54:31.226Z"
39,0.036787108,-1.01354,-0.08467773,331,"2022-12-26T00:55:31.788Z"
37,0.073293455,-0.9954614,-0.20919433,333,"2022-12-26T00:56:32.350Z"
36,0.07378906,-0.9953052,-0.20980224,333,"2022-12-26T00:57:32.913Z"
37,0.074384764,-0.9955835,-0.20891114,334,"2022-12-26T00:58:33.475Z"
41,0.07480957,-0.99463135,-0.21311523,333,"2022-12-26T00:59:34.037Z"
39,0.07540039,-0.9942578,-0.21351562,333,"2022-12-26T01:00:34.599Z"
41,0.075688474,-0.9944189,-0.21407959,333,"2022-12-26T01:01:35.161Z"
41,0.07638183,-0.9947046,-0.21061523,333,"2022-12-26T01:02:35.723Z"
38,0.07620606,-0.9946655,-0.21079834,333,"2022-12-26T01:03:36.286Z"
37,0.076557614,-0.9926294,-0.2182837,333,"2022-12-26T01:04:36.848Z"
39,0.07605225,-0.99270266,-0.21949707,334,"2022-12-26T01:05:37.410Z"
38,0.07597412,-0.99216795,-0.21973632,333,"2022-12-26T01:06:37.972Z"
55,-0.023410644,-0.5338037,-0.8652734,334,"2022-12-26T01:07:38.534Z"
38,-0.021225587,-0.5312036,-0.866875,332,"2022-12-26T01:08:39.097Z"
35,-0.0061694337,-0.5284082,-0.86916506,332,"2022-12-26T01:09:39.659Z"
42,-0.005595703,-0.52910644,-0.8685596,332,"2022-12-26T01:10:40.221Z"
39,-0.004477539,-0.52894044,-0.8682349,332,"2022-12-26T01:11:40.783Z"
38,-0.004040527,-0.52949464,-0.86781496,333,"2022-12-26T01:12:41.358Z"
42,-0.0038061524,-0.5301367,-0.8672168,333,"2022-12-26T01:13:41.920Z"
38,-0.007585449,-0.54597414,-0.856687,334,"2022-12-26T01:14:42.482Z"
41,0.6170679,-0.15926026,0.7864282,335,"2022-12-26T01:15:43.045Z"
37,0.6150757,-0.13805664,0.7911157,333,"2022-12-26T01:16:43.607Z"
36,0.6115503,-0.13336182,0.79375243,332,"2022-12-26T01:17:44.169Z"
36,0.61086917,-0.1303955,0.79528075,330,"2022-12-26T01:18:44.731Z"
36,0.6124194,-0.13046387,0.7937036,329,"2022-12-26T01:19:45.293Z"
35,0.620896,-0.122924805,0.78824216,327,"2022-12-26T01:20:45.856Z"
38,0.6185547,-0.1208667,0.7900366,326,"2022-12-26T01:21:46.418Z"
37,0.6144824,-0.11590332,0.79355955,324,"2022-12-26T01:22:46.980Z"
37,0.6167309,-0.11744873,0.79182374,323,"2022-12-26T01:23:47.542Z"
39,0.61310303,-0.114147946,0.7955518,321,"2022-12-26T01:24:48.104Z"
38,0.61336917,-0.11373047,0.79516846,320,"2022-12-26T01:25:48.667Z"
38,0.6133252,-0.11328125,0.7950781,320,"2022-12-26T01:26:49.229Z"
36,0.6132178,-0.1098291,0.7959912,319,"2022-12-26T01:27:49.791Z"
38,0.61333007,-0.109064944,0.7958325,318,"2022-12-26T01:28:50.353Z"
41,0.61428225,-0.1096167,0.7946973,317,"2022-12-26T01:29:50.916Z"
36,0.6123437,-0.10717529,0.79652345,316,"2022-12-26T01:30:51.478Z"
43,0.6079956,-0.07125488,0.8034302,316,"2022-12-26T01:31:52.052Z"
38,0.61070555,-0.075397946,0.80002683,315,"2022-12-26T01:32:52.615Z"
37,0.60763913,-0.071315914,0.8035254,315,"2022-12-26T01:33:53.177Z"
43,0.6095532,-0.07239502,0.8018701,314,"2022-12-26T01:34:53.739Z"
38,0.6099658,-0.073728025,0.8008106,313,"2022-12-26T01:35:54.301Z"
38,0.6088428,-0.07250244,0.80216795,313,"2022-12-26T01:36:54.863Z"
37,0.61043215,-0.07497559,0.80017823,313,"2022-12-26T01:37:55.426Z"
42,0.608418,-0.07951904,0.8016113,312,"2022-12-26T01:38:55.988Z"
37,0.63639647,-0.053701174,0.78346926,312,"2022-12-26T01:39:56.550Z"
34,0.7145776,-0.043574218,0.7167065,312,"2022-12-26T01:40:57.112Z"
39,0.7140088,-0.040874023,0.717334,312,"2022-12-26T01:41:57.675Z"
39,0.71397215,-0.0389624,0.7174341,311,"2022-12-26T01:42:58.237Z"
42,0.7143628,-0.039848633,0.71680176,311,"2022-12-26T01:43:58.799Z"
39,0.71552247,-0.03980713,0.7158716,311,"2022-12-26T01:44:59.361Z"
39,0.71694094,-0.04008545,0.7142969,311,"2022-12-26T01:45:59.923Z"
39,0.71104246,0.033376466,0.7187549,311,"2022-12-26T01:47:00.486Z"
37,0.7130225,0.033391114,0.7167773,313,"2022-12-26T01:48:01.048Z"
38,0.7134546,0.032722168,0.71660644,314,"2022-12-26T01:49:01.610Z"
41,0.71348387,0.034172364,0.7164795,315,"2022-12-26T01:50:02.172Z"
35,0.68270755,-0.09636963,0.7411182,317,"2022-12-26T01:51:02.747Z"
42,0.68261474,-0.09996338,0.73987305,318,"2022-12-26T01:52:03.309Z"
42,0.6797949,-0.09713623,0.743562,317,"2022-12-26T01:53:03.871Z"
38,0.6829736,-0.10271729,0.7400854,317,"2022-12-26T01:54:04.434Z"
43,0.6822046,-0.1011499,0.7407349,318,"2022-12-26T01:55:04.996Z"
48,0.6802002,-0.09997314,0.7428906,319,"2022-12-26T01:56:05.558Z"
45,0.681499,-0.10165283,0.74035645,319,"2022-12-26T01:57:06.120Z"
45,0.67911863,-0.0998291,0.743479,319,"2022-12-26T01:58:06.682Z"
39,0.67976564,-0.10083496,0.74318117,319,"2022-12-26T01:59:07.245Z"
46,0.68066406,-0.10234863,0.7417309,319,"2022-12-26T02:00:07.807Z"
46,0.6860107,-0.10783692,0.736687,319,"2022-12-26T02:01:08.369Z"
35,0.6821973,-0.10326416,0.7410425,318,"2022-12-26T02:02:08.931Z"
37,0.6838965,-0.10616943,0.7391968,317,"2022-12-26T02:03:09.493Z"
40,0.68303466,-0.10325439,0.7403906,316,"2022-12-26T02:04:10.056Z"
38,0.6842847,-0.10520264,0.738606,315,"2022-12-26T02:05:10.618Z"
35,0.7709497,-0.13409913,0.6469971,308,"2022-12-26T02:06:11.180Z"
38,0.7738941,-0.121933594,0.64632326,308,"2022-12-26T02:07:11.742Z"
41,0.7747656,-0.120480955,0.6456665,310,"2022-12-26T02:08:12.305Z"
44,0.7756665,-0.1170752,0.6444336,311,"2022-12-26T02:09:12.867Z"
46,-0.5748584,0.7452417,0.27378175,310,"2022-12-26T02:10:13.442Z"
44,-0.57555175,0.74103516,0.2843823,307,"2022-12-26T02:11:14.004Z"
35,-0.5733081,0.7395459,0.2907251,308,"2022-12-26T02:12:14.566Z"
41,-0.5767822,0.73485595,0.2961621,307,"2022-12-26T02:13:15.128Z"
40,-0.57601565,0.7334766,0.29813966,308,"2022-12-26T02:14:15.690Z"
41,-0.5739868,0.7341455,0.30273193,308,"2022-12-26T02:15:16.253Z"
41,-0.57758546,0.7354248,0.29210448,309,"2022-12-26T02:16:16.815Z"
38,-0.57709473,0.73453367,0.29338378,310,"2022-12-26T02:17:17.377Z"
38,-0.576416,0.7354541,0.29538575,310,"2022-12-26T02:18:17.939Z"
45,-0.57595706,0.73500246,0.2971118,310,"2022-12-26T02:19:18.501Z"
35,-0.5788672,0.7331445,0.29536134,311,"2022-12-26T02:20:19.064Z"
40,-0.5770508,0.7323682,0.30098632,311,"2022-12-26T02:21:19.626Z"
39,-0.57993895,0.7313965,0.29826415,311,"2022-12-26T02:22:20.173Z"
35,-0.5767749,0.7313647,0.30257812,311,"2022-12-26T02:23:20.736Z"
38,-0.5774951,0.7310303,0.30282715,312,"2022-12-26T02:24:21.298Z"
38,-0.57625246,0.7315698,0.30391356,312,"2022-12-26T02:25:21.860Z"
41,-0.57784426,0.73107666,0.30302003,312,"2022-12-26T02:26:22.422Z"
41,-0.5786035,0.7310474,0.30148682,313,"2022-12-26T02:27:22.984Z"
41,-0.57642335,0.7312988,0.30575684,313,"2022-12-26T02:28:23.547Z"
37,-0.5765698,0.73081785,0.306062,314,"2022-12-26T02:29:24.117Z"
39,-0.5779297,0.7303467,0.3029297,313,"2022-12-26T02:30:24.683Z"
37,-0.5768994,0.7308691,0.30597413,313,"2022-12-26T02:31:25.246Z"
36,-0.5763086,0.73006594,0.30777588,313,"2022-12-26T02:32:25.808Z"
40,-0.57638186,0.7300195,0.30684814,313,"2022-12-26T02:33:26.370Z"
37,-0.5761304,0.73017335,0.30818117,313,"2022-12-26T02:34:26.932Z"
40,-0.57595944,0.7298218,0.30821046,314,"2022-12-26T02:35:27.494Z"
37,-0.5784082,0.72916013,0.30604494,314,"2022-12-26T02:36:28.057Z"
43,-0.5783203,0.7285498,0.30570802,314,"2022-12-26T02:37:28.618Z"
37,-0.5776416,0.72873044,0.30810547,314,"2022-12-26T02:38:29.181Z"
36,-0.5774805,0.7288745,0.30764648,314,"2022-12-26T02:39:29.743Z"
47,0.7349878,0.179729,0.66908205,323,"2022-12-26T02:40:30.305Z"
39,0.7382886,0.16761963,0.66875,322,"2022-12-26T02:41:30.868Z"
43,0.73893064,0.17049804,0.66739744,322,"2022-12-26T02:42:31.430Z"
37,0.7416113,0.17125976,0.66370606,322,"2022-12-26T02:43:31.992Z"
41,0.7423657,0.17242187,0.6629712,322,"2022-12-26T02:44:32.554Z"
37,0.74336183,0.17313233,0.6617187,322,"2022-12-26T02:45:33.116Z"
34,0.6849243,-0.040478516,0.7427685,322,"2022-12-26T02:46:33.679Z"
35,0.68459475,-0.039628908,0.7438281,321,"2022-12-26T02:47:34.240Z"
35,0.68519044,-0.041469727,0.7427515,320,"2022-12-26T02:48:34.811Z"
37,0.6830786,-0.039296877,0.74533933,319,"2022-12-26T02:49:35.363Z"
40,0.6827783,-0.039265137,0.7455005,318,"2022-12-26T02:50:35.925Z"
37,0.6841455,-0.043010253,0.74342775,318,"2022-12-26T02:51:36.487Z"
38,0.6827588,-0.040222168,0.74587893,317,"2022-12-26T02:52:37.049Z"
37,0.6835474,-0.040788576,0.7451611,317,"2022-12-26T02:53:37.612Z"
37,0.6826782,-0.04097412,0.74613523,316,"2022-12-26T02:54:38.174Z"
37,0.68232423,-0.041430663,0.7462793,316,"2022-12-26T02:55:38.736Z"
38,0.68226075,-0.051467285,0.7453711,315,"2022-12-26T02:56:39.298Z"
37,0.68151367,-0.05076416,0.74591064,315,"2022-12-26T02:57:39.860Z"
36,0.68328124,-0.053308107,0.7443921,315,"2022-12-26T02:58:40.423Z"
35,0.6835205,-0.054504395,0.7435791,314,"2022-12-26T02:59:40.985Z"
37,0.6830322,-0.05303711,0.7451489,314,"2022-12-26T03:00:41.547Z"
37,0.6840845,-0.055476073,0.7440625,314,"2022-12-26T03:01:42.109Z"
36,0.68391114,-0.055788573,0.74411863,313,"2022-12-26T03:02:42.671Z"
39,0.6827832,-0.055163573,0.7449072,313,"2022-12-26T03:03:43.234Z"
36,0.68215334,-0.05373047,0.7456226,313,"2022-12-26T03:04:43.796Z"
37,0.6825098,-0.05406494,0.7456836,313,"2022-12-26T03:05:44.358Z"
37,0.6816211,-0.054177247,0.7462036,312,"2022-12-26T03:06:44.920Z"
37,0.68400145,-0.05660156,0.7436621,313,"2022-12-26T03:07:45.491Z"
38,0.68229246,-0.054699708,0.7454077,312,"2022-12-26T03:08:46.057Z"
36,0.6811279,-0.053654786,0.74689454,312,"2022-12-26T03:09:46.619Z"
38,0.68094236,-0.054614257,0.7464185,312,"2022-12-26T03:10:47.182Z"
37,0.6832153,-0.0577832,0.74474853,312,"2022-12-26T03:11:47.744Z"
38,0.6803662,-0.053947754,0.74748045,311,"2022-12-26T03:12:48.306Z"
41,0.6801416,-0.05409424,0.74718505,311,"2022-12-26T03:13:48.868Z"
38,0.6808447,-0.055266112,0.74630374,311,"2022-12-26T03:14:49.430Z"
37,0.68062013,-0.05394043,0.7473438,311,"2022-12-26T03:15:49.993Z"
35,0.6808008,-0.055063475,0.74727786,311,"2022-12-26T03:16:50.555Z"
37,0.68020993,-0.054482423,0.74736816,310,"2022-12-26T03:17:51.117Z"
36,0.6804346,-0.055339355,0.74690187,310,"2022-12-26T03:18:51.679Z"
36,0.6806616,-0.05545166,0.7470483,310,"2022-12-26T03:19:52.241Z"
35,0.6821948,-0.057424318,0.7456714,310,"2022-12-26T03:20:52.804Z"
37,0.6798486,-0.05459717,0.74766845,309,"2022-12-26T03:21:53.366Z"
38,0.67996335,-0.055083007,0.74687743,309,"2022-12-26T03:22:53.928Z"
34,0.68179685,-0.057402343,0.7461182,309,"2022-12-26T03:23:54.490Z"
37,0.67985594,-0.05557617,0.74725586,309,"2022-12-26T03:24:55.052Z"
36,0.68048096,-0.056604005,0.74736327,309,"2022-12-26T03:25:55.615Z"
38,0.6806494,-0.055771485,0.74746585,308,"2022-12-26T03:26:56.185Z"
40,0.6796777,-0.056359865,0.74746585,308,"2022-12-26T03:27:56.752Z"
37,0.6798633,-0.056032714,0.7480005,308,"2022-12-26T03:28:57.314Z"
36,0.6801392,-0.056308594,0.7476831,307,"2022-12-26T03:29:57.876Z"
38,0.68256104,-0.0596167,0.7454419,307,"2022-12-26T03:30:58.438Z"
38,0.6820215,-0.05936035,0.7449243,307,"2022-12-26T03:31:59.000Z"
37,0.6794678,-0.055605467,0.7478809,307,"2022-12-26T03:32:59.563Z"
37,0.6799463,-0.05596924,0.74763674,306,"2022-12-26T03:34:00.125Z"
36,0.6793823,-0.056003418,0.74801517,306,"2022-12-26T03:35:00.687Z"
38,0.6806396,-0.05800537,0.74709964,306,"2022-12-26T03:36:01.250Z"
36,0.6801172,-0.055393066,0.7476831,305,"2022-12-26T03:37:01.812Z"
50,-0.20233154,-0.4507544,-0.8872266,305,"2022-12-26T03:38:02.374Z"
45,-0.103027344,-0.66648924,-0.7593604,304,"2022-12-26T03:39:02.936Z"
54,-0.10174316,-0.66905516,-0.7572583,305,"2022-12-26T03:40:03.498Z"
33,0.6372095,0.5731201,0.52734864,307,"2022-12-26T03:41:04.061Z"
35,0.6356787,0.57398194,0.5270703,306,"2022-12-26T03:42:04.623Z"
34,0.63407224,0.57410157,0.5295044,306,"2022-12-26T03:43:05.185Z"
39,0.63353515,0.5739746,0.52986574,306,"2022-12-26T03:44:05.747Z"
39,0.63327146,0.576001,0.5271997,306,"2022-12-26T03:45:06.310Z"
33,0.61426026,0.53528076,0.58816165,306,"2022-12-26T03:46:06.880Z"
41,0.6119678,0.5353687,0.59080076,307,"2022-12-26T03:47:07.446Z"
39,0.61279786,0.53404784,0.590791,307,"2022-12-26T03:48:08.009Z"
43,0.61272216,0.5336865,0.5911865,307,"2022-12-26T03:49:08.571Z"
40,0.61199707,0.5310962,0.5942871,307,"2022-12-26T03:50:09.133Z"
38,0.6121118,0.53243166,0.59261477,307,"2022-12-26T03:51:09.695Z"
38,0.6115576,0.5311084,0.5954712,307,"2022-12-26T03:52:10.257Z"
38,0.61272216,0.5293848,0.59454834,308,"2022-12-26T03:53:10.820Z"
41,0.6141333,0.5308081,0.5926269,308,"2022-12-26T03:54:11.382Z"
36,0.5265454,0.5999658,0.6062622,308,"2022-12-26T03:55:11.944Z"
37,0.524082,0.6071436,0.60047364,308,"2022-12-26T03:56:12.506Z"
46,-0.56759524,0.47624755,0.6366504,308,"2022-12-26T03:57:13.069Z"
34,-0.56409425,0.4681372,0.6465991,310,"2022-12-26T03:58:13.631Z"
50,-0.5587793,0.46856934,0.65003663,310,"2022-12-26T03:59:14.193Z"
41,-0.5602539,0.46325928,0.65287596,311,"2022-12-26T04:00:14.755Z"
37,-0.55918944,0.45962402,0.65712404,311,"2022-12-26T04:01:15.317Z"
38,-0.5607861,0.46023193,0.6555786,312,"2022-12-26T04:02:15.880Z"
41,-0.5613623,0.45924073,0.6561328,312,"2022-12-26T04:03:16.442Z"
41,-0.5004566,0.70215577,0.46594238,314,"2022-12-26T04:04:17.004Z"
35,-0.49936035,0.69802004,0.47182617,317,"2022-12-26T04:05:17.574Z"
36,-0.4982544,0.69787353,0.47344238,320,"2022-12-26T04:06:18.141Z"
38,-0.49796632,0.6970044,0.4752368,321,"2022-12-26T04:07:18.703Z"
44,-0.50108397,0.6961939,0.47311524,323,"2022-12-26T04:08:19.266Z"
38,-0.49780273,0.69604003,0.4772705,324,"2022-12-26T04:09:19.828Z"
34,-0.4974512,0.69535154,0.47860107,325,"2022-12-26T04:10:20.390Z"
32,-0.5357202,0.35316163,0.73865235,325,"2022-12-26T04:11:20.952Z"
53,-0.7474927,0.637229,-0.03050293,323,"2022-12-26T04:12:21.514Z"
38,-0.7473267,0.63682616,-0.013540039,321,"2022-12-26T04:13:22.077Z"
39,-0.7468823,0.6380005,-0.011171875,323,"2022-12-26T04:14:22.639Z"
39,-0.74914306,0.6357959,-0.009020996,324,"2022-12-26T04:15:23.201Z"
36,-0.7477148,0.6370776,-0.0052319337,325,"2022-12-26T04:16:23.763Z"
39,-0.74810547,0.63666016,-0.002824707,327,"2022-12-26T04:17:24.325Z"
34,-0.74629885,0.6380762,0.0016723633,328,"2022-12-26T04:18:24.888Z"
33,-0.746521,0.63787353,0.0037060548,329,"2022-12-26T04:19:25.450Z"
35,-0.749187,0.63482666,0.0010546875,330,"2022-12-26T04:20:26.012Z"
35,-0.7461548,0.6383252,0.006931152,331,"2022-12-26T04:21:26.574Z"
35,-0.7462891,0.6382056,0.008979492,331,"2022-12-26T04:22:27.136Z"
35,-0.7443262,0.6402368,0.013640136,332,"2022-12-26T04:23:27.699Z"
35,-0.745437,0.63887453,0.01559082,333,"2022-12-26T04:24:28.269Z"
38,-0.74647707,0.63750976,0.01638672,334,"2022-12-26T04:25:28.836Z"
35,-0.744646,0.63958496,0.020512694,334,"2022-12-26T04:26:29.398Z"
34,-0.7447534,0.6395874,0.022163086,335,"2022-12-26T04:27:29.960Z"
35,-0.74575686,0.6385205,0.025170898,335,"2022-12-26T04:28:30.522Z"
36,-0.74575686,0.63775635,0.025041504,335,"2022-12-26T04:29:31.084Z"
36,-0.7467627,0.6359668,0.025080567,336,"2022-12-26T04:30:31.647Z"
36,-0.7475488,0.63544923,0.024875488,336,"2022-12-26T04:31:32.209Z"
42,-0.77425784,0.37322998,0.46660155,337,"2022-12-26T04:32:32.771Z"
40,-0.7745459,0.37137452,0.46730223,337,"2022-12-26T04:33:33.333Z"
40,-0.77795655,0.37404785,0.45839354,336,"2022-12-26T04:34:33.896Z"
33,-0.7684009,0.59996825,0.10080566,335,"2022-12-26T04:35:34.458Z"
38,-0.7702832,0.59734374,0.10018311,335,"2022-12-26T04:36:35.020Z"
35,-0.7685449,0.5986377,0.10779785,336,"2022-12-26T04:37:35.582Z"
38,-0.7688184,0.59759766,0.110305175,337,"2022-12-26T04:38:36.144Z"
39,-0.7689209,0.5974121,0.11042969,337,"2022-12-26T04:39:36.707Z"
42,-0.77094483,0.5947168,0.10949463,338,"2022-12-26T04:40:37.269Z"
62,-0.7242334,0.23111328,0.61483645,339,"2022-12-26T04:41:37.831Z"
39,-0.70884275,0.22892334,0.6334839,338,"2022-12-26T04:42:38.393Z"
41,-0.7079468,0.22174317,0.6364746,336,"2022-12-26T04:43:38.955Z"
50,-0.6400049,0.70749265,0.22286865,335,"2022-12-26T04:44:39.530Z"
40,-0.6760327,0.62440675,0.3311743,333,"2022-12-26T04:45:40.092Z"
39,-0.67640626,0.6222046,0.33446288,332,"2022-12-26T04:46:40.655Z"
38,-0.67927,0.6238208,0.32654786,331,"2022-12-26T04:47:41.217Z"
41,-0.6768433,0.6235547,0.33351806,331,"2022-12-26T04:48:41.779Z"
41,-0.677439,0.62474364,0.3292871,331,"2022-12-26T04:49:42.341Z"
46,-0.67666745,0.62450194,0.33086425,330,"2022-12-26T04:50:42.903Z"
40,-0.679375,0.6247485,0.3231836,330,"2022-12-26T04:51:43.465Z"
68,0.65693605,0.12317139,0.7562646,329,"2022-12-26T04:52:44.028Z"
34,0.65075684,0.13352051,0.7595532,331,"2022-12-26T04:53:44.590Z"
41,0.6516846,0.1359082,0.7589502,332,"2022-12-26T04:54:45.152Z"
42,0.652854,0.14411621,0.75595945,334,"2022-12-26T04:55:45.714Z"
40,0.65243894,0.14385253,0.7565991,336,"2022-12-26T04:56:46.276Z"
46,0.6545117,0.1425293,0.7544702,337,"2022-12-26T04:57:46.839Z"
40,0.6514209,0.1461377,0.7569092,338,"2022-12-26T04:58:47.401Z"
41,0.6532324,0.15821289,0.753269,339,"2022-12-26T04:59:47.963Z"
40,-0.55417967,0.07673828,0.80612063,341,"2022-12-26T05:00:48.525Z"
44,-0.55164796,0.07592041,0.80768555,343,"2022-12-26T05:01:49.087Z"
40,-0.55252683,0.08024903,0.80725586,344,"2022-12-26T05:02:49.650Z"
39,-0.5555054,0.068666995,0.8057886,346,"2022-12-26T05:03:50.224Z"
65,-0.03459961,0.72195315,-0.69240725,347,"2022-12-26T05:04:50.787Z"
64,0.40937987,0.8854639,0.27137452,344,"2022-12-26T05:05:51.349Z"
69,-0.79409426,0.57529294,-0.07407959,340,"2022-12-26T05:06:51.911Z"
67,0.23259278,0.9564429,-0.17270508,336,"2022-12-26T05:07:52.473Z"
66,0.18886718,0.9278809,0.04909668,333,"2022-12-26T05:08:53.035Z"
61,-0.067463376,0.98935056,-0.07640625,329,"2022-12-26T05:09:53.597Z"
61,-0.04144043,0.9898218,-0.1476538,326,"2022-12-26T05:10:54.160Z"
81,-0.024831543,-0.09773681,0.9164429,328,"2022-12-26T05:11:54.722Z"
51,-0.03531006,0.9456348,0.20804687,328,"2022-12-26T05:12:55.284Z"
41,-0.6393945,0.044128418,0.7404419,329,"2022-12-26T05:13:55.846Z"
39,-0.62860596,0.04866211,0.75027585,331,"2022-12-26T05:14:56.408Z"
37,-0.626731,0.051166993,0.752124,333,"2022-12-26T05:15:56.971Z"
42,-0.6293384,0.048903808,0.7507153,335,"2022-12-26T05:16:57.533Z"
38,-0.63051516,0.053410646,0.74912596,337,"2022-12-26T05:17:58.095Z"
39,-0.62977296,0.049528807,0.7509961,338,"2022-12-26T05:18:58.657Z"
41,-0.62980956,0.058078613,0.7500855,340,"2022-12-26T05:19:59.219Z"
41,-0.6307275,0.0635498,0.74917966,341,"2022-12-26T05:20:59.782Z"
37,-0.6289307,0.061518554,0.75109863,342,"2022-12-26T05:22:00.344Z"
45,-0.53437257,0.047292482,0.8197485,343,"2022-12-26T05:23:00.906Z"
45,-0.24071045,0.5001001,0.81368655,344,"2022-12-26T05:24:01.468Z"
48,0.020473633,0.88078856,-0.47103027,343,"2022-12-26T05:25:02.031Z"
47,0.05065918,0.84595215,-0.53123534,341,"2022-12-26T05:26:02.593Z"
49,0.08270752,0.8842041,-0.46117187,339,"2022-12-26T05:27:03.155Z"
74,0.6675195,0.57420164,0.33612305,337,"2022-12-26T05:28:03.717Z"
69,-0.5662427,0.62076414,-0.5172168,335,"2022-12-26T05:29:04.279Z"
71,0.2682666,0.3618164,0.9214819,331,"2022-12-26T05:30:04.841Z"
70,0.26966798,0.9676953,0.07210937,328,"2022-12-26T05:31:05.404Z"
59,0.28223878,0.9142676,0.28846437,325,"2022-12-26T05:32:05.966Z"
62,0.20942871,0.8568921,-0.4808252,325,"2022-12-26T05:33:06.528Z"
66,0.19645996,0.94818604,0.2574585,323,"2022-12-26T05:34:07.090Z"
69,0.2520215,0.81170654,-0.52881837,323,"2022-12-26T05:35:07.652Z"
74,0.25466552,0.90823483,0.2936914,321,"2022-12-26T05:36:08.215Z"
73,0.18899414,0.93587893,0.2606592,321,"2022-12-26T05:37:08.777Z"
71,0.046191406,0.8796997,0.44567382,319,"2022-12-26T05:38:09.339Z"
63,-0.019208984,0.6901929,0.68971926,318,"2022-12-26T05:39:09.901Z"
59,0.21007568,0.9217334,0.28578368,317,"2022-12-26T05:40:10.464Z"
65,0.25412354,0.77860105,0.5604297,316,"2022-12-26T05:41:11.026Z"
70,0.31709716,0.68296385,0.6652197,315,"2022-12-26T05:42:11.588Z"
65,0.7821265,0.07317383,0.6296997,314,"2022-12-26T05:43:12.135Z"
74,0.722395,0.6224829,0.094367675,313,"2022-12-26T05:44:12.698Z"
76,0.25439453,0.7947168,0.5129492,313,"2022-12-26T05:45:13.260Z"
49,0.084731445,0.71974856,-0.6954639,312,"2022-12-26T05:46:13.822Z"
52,0.3797583,0.81046385,-0.45670655,313,"2022-12-26T05:47:14.384Z"
51,0.4455542,0.58634764,-0.68735105,313,"2022-12-26T05:48:14.946Z"
55,0.37612793,0.7045605,-0.6137305,312,"2022-12-26T05:49:15.509Z"
73,0.20460938,0.7016333,-0.6931958,311,"2022-12-26T05:50:16.071Z"
51,0.22361328,0.92213136,-0.32544434,312,"2022-12-26T05:51:16.633Z"
49,0.19170898,0.9574097,-0.21795654,311,"2022-12-26T05:52:17.195Z"
44,0.09769776,0.92846924,-0.359834,311,"2022-12-26T05:53:17.757Z"
57,0.44222656,0.8722314,0.16461426,310,"2022-12-26T05:54:18.320Z"
56,0.32481202,0.90882814,0.1745288,309,"2022-12-26T05:55:18.882Z"
50,0.964646,0.23000245,0.22550292,308,"2022-12-26T05:56:19.444Z"
60,0.26878417,0.95218503,-0.16682617,308,"2022-12-26T05:57:20.006Z"
51,0.97947997,0.19297852,0.20169921,307,"2022-12-26T05:58:20.569Z"
65,0.97137207,0.08511719,0.29348633,307,"2022-12-26T05:59:21.131Z"
60,0.97480226,0.16711426,0.24062257,307,"2022-12-26T06:00:21.693Z"
59,0.95756346,0.2514575,0.23656006,307,"2022-12-26T06:01:22.255Z"
53,0.9487646,0.26523682,0.25250977,307,"2022-12-26T06:02:22.817Z"
54,0.9480811,0.25776854,0.26600587,306,"2022-12-26T06:03:23.380Z"
55,0.060197756,0.40483886,-0.922312,306,"2022-12-26T06:04:23.942Z"
69,0.79125,0.52862304,-0.22286865,306,"2022-12-26T06:05:24.504Z"
80,-0.2663916,0.7369287,-0.6057715,306,"2022-12-26T06:06:25.066Z"
80,0.1573584,0.7389453,-0.666648,305,"2022-12-26T06:07:25.628Z"
80,-0.4051123,0.78119385,0.28773195,303,"2022-12-26T06:08:26.191Z"
82,0.9543188,0.34662354,0.04755127,303,"2022-12-26T06:09:26.753Z"
63,0.8774585,0.32927734,0.15,303,"2022-12-26T06:10:27.315Z"
61,0.2620874,0.86928713,0.40511474,303,"2022-12-26T06:11:27.877Z"
46,0.974126,0.26471436,-0.1346167,301,"2022-12-26T06:12:28.440Z"
56,0.9566504,0.30859375,-0.15631104,301,"2022-12-26T06:13:29.002Z"
48,0.95269775,0.34996825,0.04923584,301,"2022-12-26T06:14:29.564Z"
50,0.22975342,0.92878664,-0.30031738,301,"2022-12-26T06:15:30.126Z"
48,0.23160644,0.94344974,-0.24621093,299,"2022-12-26T06:16:30.688Z"
52,0.9164014,0.1254419,0.42549804,298,"2022-12-26T06:17:31.251Z"
59,0.4688379,0.58510745,0.6638696,297,"2022-12-26T06:18:31.813Z"
56,0.49973634,0.6064941,0.62273437,294,"2022-12-26T06:19:32.375Z"
61,0.41900146,0.90500975,-0.12318604,296,"2022-12-26T06:20:32.938Z"
57,0.22129394,0.9546826,-0.20672607,296,"2022-12-26T06:21:33.500Z"
66,0.10738769,0.9915967,0.013745117,295,"2022-12-26T06:22:34.062Z"
60,0.09231445,0.937478,0.31391603,294,"2022-12-26T06:23:34.624Z"
55,0.11434326,0.9828271,0.10311523,293,"2022-12-26T06:24:35.186Z"
54,0.11072265,0.9477002,0.2800049,293,"2022-12-26T06:25:35.749Z"
59,0.0821167,0.9868799,0.1215918,292,"2022-12-26T06:26:36.311Z"
53,0.08604248,0.9267139,0.34333253,291,"2022-12-26T06:27:36.873Z"
58,0.060861815,0.91492677,0.3790088,290,"2022-12-26T06:28:37.435Z"
53,0.05862549,0.88649905,0.43963867,291,"2022-12-26T06:29:37.998Z"
66,0.06804932,0.9298877,0.34172362,291,"2022-12-26T06:30:38.560Z"
62,0.15312256,0.98548585,0.0062036132,292,"2022-12-26T06:31:39.122Z"
52,0.16033936,0.97661376,0.10634766,290,"2022-12-26T06:32:39.684Z"
52,0.12867676,0.9902881,0.0608667,288,"2022-12-26T06:33:40.247Z"
67,0.9837085,0.26315674,-0.00706543,289,"2022-12-26T06:34:40.809Z"
53,0.21460205,0.9442847,0.23784912,289,"2022-12-26T06:35:41.371Z"
58,0.15121093,0.9634497,0.19874267,288,"2022-12-26T06:36:41.933Z"
50,0.18416992,0.82575196,0.5230225,288,"2022-12-26T06:37:42.495Z"
54,0.16586426,0.8937793,0.40418214,290,"2022-12-26T06:38:43.058Z"
54,0.1561084,0.9825293,0.0533667,291,"2022-12-26T06:39:43.620Z"
56,0.2862256,0.79631835,0.5260327,292,"2022-12-26T06:40:44.182Z"
56,0.9368164,0.39201173,-0.051015627,292,"2022-12-26T06:41:44.744Z"
52,0.14343262,0.8933789,0.4105786,293,"2022-12-26T06:42:45.307Z"
86,-0.7415674,0.71721435,0.0108129885,293,"2022-12-26T06:43:45.869Z"
92,-0.087243654,0.9933252,0.08703125,292,"2022-12-26T06:44:46.431Z"
95,0.19145752,0.6746802,-0.73193115,291,"2022-12-26T06:45:46.993Z"
76,0.5298145,0.4828662,0.5617798,291,"2022-12-26T06:46:47.556Z"
73,-0.2927417,0.78582275,-0.5325464,292,"2022-12-26T06:47:48.118Z"
75,-0.27743652,0.8452661,0.3485669,292,"2022-12-26T06:48:48.680Z"
79,-0.27198243,0.5979248,0.62826174,293,"2022-12-26T06:49:49.242Z"
79,-0.952229,0.013002929,0.23375,294,"2022-12-26T06:50:49.804Z"
101,-0.41585693,0.7095825,-0.57139647,294,"2022-12-26T06:51:50.367Z"
91,0.20099121,0.9713257,-0.082888186,293,"2022-12-26T06:52:50.929Z"
96,-0.22148193,0.8305542,-0.48434082,294,"2022-12-26T06:53:51.491Z"
90,-0.6899902,0.45203125,0.4175952,293,"2022-12-26T06:54:52.053Z"
80,-0.2778711,0.53582764,0.71827394,292,"2022-12-26T06:55:52.616Z"
83,-0.45943114,0.6614746,0.55789304,290,"2022-12-26T06:56:53.178Z"
93,0.3068408,0.9385913,0.004633789,294,"2022-12-26T06:57:53.740Z"
90,-0.26111817,0.7825952,0.51845217,293,"2022-12-26T06:58:54.302Z"
92,0.0406958,0.10581787,-0.9926611,294,"2022-12-26T06:59:54.865Z"
94,0.131604,0.8925537,-0.22932617,294,"2022-12-26T07:00:55.427Z"
101,-0.23277588,0.7906958,0.5124512,294,"2022-12-26T07:01:55.989Z"
97,-0.31506592,0.4536621,0.7872339,293,"2022-12-26T07:02:56.551Z"
112,-0.23874512,0.7923364,0.5287207,292,"2022-12-26T07:03:57.114Z"
104,-0.4490283,0.584292,0.63131106,293,"2022-12-26T07:04:57.676Z"
96,-0.40501463,0.7267139,0.4963867,293,"2022-12-26T07:05:58.238Z"
98,-0.7825073,0.5027759,0.2608423,295,"2022-12-26T07:06:58.800Z"
100,-0.21514404,0.8708227,0.29036865,294,"2022-12-26T07:07:59.363Z"
92,0.15307862,0.956604,0.07271729,294,"2022-12-26T07:08:59.925Z"
97,-0.27868164,0.86781496,-0.38262695,295,"2022-12-26T07:10:00.487Z"
87,-0.6635425,0.74368405,-0.0407666,295,"2022-12-26T07:11:01.049Z"
91,-0.5849951,0.6982251,0.1870337,295,"2022-12-26T07:12:01.611Z"
94,-0.49581543,0.8199732,0.21510743,295,"2022-12-26T07:13:02.174Z"
93,-0.76685303,0.3285669,-0.5120776,294,"2022-12-26T07:14:02.736Z"
92,-0.8201343,0.5053662,-0.22495605,295,"2022-12-26T07:15:03.298Z"
89,-0.04668213,0.44017577,0.86761475,295,"2022-12-26T07:16:03.860Z"
72,-0.41923583,0.847041,-0.2872583,295,"2022-12-26T07:17:04.423Z"
75,-0.22223389,0.67618406,0.67957276,295,"2022-12-26T07:18:04.985Z"
72,0.024440918,1.0072559,0.054992676,295,"2022-12-26T07:19:05.547Z"
76,0.13789795,0.86025393,0.47983155,294,"2022-12-26T07:20:06.109Z"
76,-0.39497072,0.071210936,0.89794433,294,"2022-12-26T07:21:06.671Z"
77,0.10147217,0.686582,0.6778711,293,"2022-12-26T07:22:07.234Z"
71,-0.04238037,0.82629395,0.5381787,294,"2022-12-26T07:23:07.796Z"
65,-0.048850097,0.7492798,-0.6703906,294,"2022-12-26T07:24:08.358Z"
72,-0.17139648,0.95427245,0.16081788,292,"2022-12-26T07:25:08.920Z"
86,-0.48797607,0.34575438,0.70522463,292,"2022-12-26T07:26:09.483Z"
77,-0.27065185,0.6933716,0.6231885,293,"2022-12-26T07:27:10.045Z"
83,-0.10839844,0.6203418,0.6805298,293,"2022-12-26T07:28:10.607Z"
97,-0.20138916,0.9165039,0.17519043,293,"2022-12-26T07:29:11.169Z"
66,-0.8512329,0.52935547,0.11261474,294,"2022-12-26T07:30:11.731Z"
69,-0.5133008,0.8033106,-0.03767334,293,"2022-12-26T07:31:12.294Z"
72,0.13762207,0.6832788,-0.74329835,293,"2022-12-26T07:32:12.856Z"
71,-0.15698487,0.8798438,0.33268067,293,"2022-12-26T07:33:13.418Z"
71,0.19830078,0.90838623,0.20134765,293,"2022-12-26T07:34:13.980Z"
75,-0.62240237,0.73049074,0.16175537,295,"2022-12-26T07:35:14.543Z"
82,-0.6440064,0.3943628,-0.58233887,294,"2022-12-26T07:36:15.105Z"
74,-0.3396289,0.8030102,0.4350244,294,"2022-12-26T07:37:15.667Z"
87,-0.81431884,0.52978516,-0.071210936,292,"2022-12-26T07:38:16.229Z"
70,-0.27986816,0.8452344,-0.303833,294,"2022-12-26T07:39:16.792Z"
81,-0.6013574,0.7503296,-0.39406005,295,"2022-12-26T07:40:17.354Z"
104,-0.04623047,0.9305493,0.092163086,295,"2022-12-26T07:41:17.916Z"
105,-0.29036865,0.9442041,0.041259766,294,"2022-12-26T07:42:18.478Z"
111,-0.40491945,0.8104663,0.24758789,294,"2022-12-26T07:43:19.041Z"
90,-0.5058325,0.64364743,-0.45583007,293,"2022-12-26T07:44:19.603Z"
92,-0.7122778,0.6751758,-0.054123536,293,"2022-12-26T07:45:20.165Z"
79,0.8084619,0.28248778,0.35276854,291,"2022-12-26T07:46:20.727Z"
96,0.8952051,0.1648462,0.4150708,293,"2022-12-26T07:47:21.290Z"
83,-0.73439944,0.65715086,0.19392578,293,"2022-12-26T07:48:21.852Z"
86,-0.112971194,0.88154787,0.43049803,293,"2022-12-26T07:49:22.414Z"
91,-0.9922949,0.013818359,-0.29912597,292,"2022-12-26T07:50:22.976Z"
89,-0.8469165,0.35539064,-0.16846924,291,"2022-12-26T07:51:23.538Z"
76,-0.29079834,0.90947264,0.17102784,291,"2022-12-26T07:52:24.101Z"
76,0.3361548,0.8863867,-0.39622802,293,"2022-12-26T07:53:24.663Z"
74,0.9842188,0.23981446,-0.031188965,292,"2022-12-26T07:54:25.225Z"
76,-0.37174806,0.7309229,-0.59900147,293,"2022-12-26T07:55:25.787Z"
78,0.22394532,0.9689258,0.055253908,292,"2022-12-26T07:56:26.350Z"
93,-1.0208619,0.25529784,0.07259277,292,"2022-12-26T07:57:26.912Z"
88,-0.93158203,0.30789796,0.16343261,294,"2022-12-26T07:58:27.474Z"
89,-0.10064942,0.99270993,0.08908936,296,"2022-12-26T07:59:28.036Z"
86,0.28334472,0.6467285,0.6345801,294,"2022-12-26T08:00:28.599Z"
87,-1.0127221,0.52444094,0.13669434,293,"2022-12-26T08:01:29.146Z"
90,-1.0100074,0.5248999,0.13174805,291,"2022-12-26T08:02:29.708Z"
74,0.14832276,0.560813,-0.82650393,289,"2022-12-26T08:03:30.270Z"
99,-0.6170996,0.53332275,0.5286206,288,"2022-12-26T08:04:30.833Z"
74,0.15641357,0.6959326,-0.7096509,287,"2022-12-26T08:05:31.395Z"
77,-0.3540283,0.936145,-0.023713378,287,"2022-12-26T08:06:31.957Z"
84,-0.6411841,0.5071045,0.5051074,286,"2022-12-26T08:07:32.519Z"
77,-0.287417,0.50570315,0.8105957,285,"2022-12-26T08:08:33.082Z"
90,-0.7470801,0.55565184,0.29755616,284,"2022-12-26T08:09:33.644Z"
85,-0.6609326,-0.12163086,0.686875,284,"2022-12-26T08:10:34.206Z"
98,-0.65869385,0.46142334,0.5199658,282,"2022-12-26T08:11:34.768Z"
115,-0.59610593,0.54618895,0.5293042,280,"2022-12-26T08:12:35.330Z"
94,-0.674397,0.4419873,0.5315723,278,"2022-12-26T08:13:35.893Z"
91,-0.63716066,0.44489992,0.58946776,276,"2022-12-26T08:14:36.455Z"
96,-0.68298095,0.47283936,0.50471437,274,"2022-12-26T08:15:37.017Z"
83,-0.70391846,0.42397216,0.5559082,273,"2022-12-26T08:16:37.579Z"
103,-0.6737573,0.47852296,0.49264404,271,"2022-12-26T08:17:38.142Z"
91,-0.53282225,0.50737303,0.62993896,269,"2022-12-26T08:18:38.704Z"
84,-0.8394263,-0.017397461,0.4992212,269,"2022-12-26T08:19:39.266Z"
88,-0.05430664,0.7808691,-0.6262744,267,"2022-12-26T08:20:39.828Z"
77,-0.121552736,0.6860742,-0.6644336,267,"2022-12-26T08:21:40.391Z"
78,-0.23185547,0.82718503,0.43546876,265,"2022-12-26T08:22:40.953Z"
83,-0.525625,0.7699756,-0.084467776,262,"2022-12-26T08:23:41.515Z"
82,0.8681396,0.2903882,0.44351807,261,"2022-12-26T08:24:42.077Z"
76,-0.32365477,0.76497316,-0.49234864,258,"2022-12-26T08:25:42.640Z"
77,0.3611841,0.078688964,0.93193114,256,"2022-12-26T08:26:43.202Z"
85,-0.5750757,0.75087404,0.31432617,255,"2022-12-26T08:27:43.764Z"
96,-0.65548825,0.5271167,0.4743457,257,"2022-12-26T08:28:44.326Z"
92,-0.65645754,0.44911376,0.55013674,256,"2022-12-26T08:29:44.889Z"
86,0.11455322,0.5749805,-0.79613036,255,"2022-12-26T08:30:45.451Z"
103,0.28309327,0.682522,0.6529321,254,"2022-12-26T08:31:46.013Z"
79,0.4716211,0.8411865,-0.2909839,254,"2022-12-26T08:32:46.575Z"
76,0.35561523,0.77449954,0.58144534,253,"2022-12-26T08:33:47.138Z"
76,0.5509302,0.7641895,0.008098144,251,"2022-12-26T08:34:47.700Z"
77,-0.32286865,0.7684326,0.5145972,249,"2022-12-26T08:35:48.262Z"
67,-0.50698245,0.45772704,0.70532715,250,"2022-12-26T08:36:48.825Z"
63,-0.30058107,0.5189087,-0.80427736,250,"2022-12-26T08:37:49.387Z"
60,-0.24914062,0.938042,-0.20940673,250,"2022-12-26T08:38:49.949Z"
74,-0.4807886,0.57951903,0.6369873,251,"2022-12-26T08:39:50.511Z"
89,-0.18685791,0.88481444,-0.41761476,253,"2022-12-26T08:40:51.074Z"
94,-0.072329104,0.386792,-0.9294019,253,"2022-12-26T08:41:51.636Z"
87,-0.0017675781,0.5039209,-0.8791553,254,"2022-12-26T08:42:52.198Z"
78,0.355896,0.937229,-0.11420166,257,"2022-12-26T08:43:52.760Z"
94,-0.040671386,0.7936816,-0.6094336,257,"2022-12-26T08:44:53.323Z"
57,-0.2895166,0.74067384,-0.6033838,256,"2022-12-26T08:45:53.885Z"
62,-0.15795898,0.92282224,-0.1934253,254,"2022-12-26T08:46:54.447Z"
59,0.009477539,0.8649951,-0.5037256,259,"2022-12-26T08:47:55.010Z"
65,0.0073706056,0.8062915,-0.5952539,263,"2022-12-26T08:48:55.572Z"
56,0.07774414,0.6532178,-0.7704834,265,"2022-12-26T08:49:56.134Z"
97,0.06937012,0.7669873,-0.66339844,264,"2022-12-26T08:50:56.696Z"
114,-0.7054907,0.4259204,0.51743895,265,"2022-12-26T08:51:57.259Z"
102,-0.7155493,0.32478514,0.51517576,264,"2022-12-26T08:52:57.821Z"
137,-0.7099219,0.48067382,0.48608398,262,"2022-12-26T08:53:58.383Z"
115,-0.701416,0.48970947,0.5010327,261,"2022-12-26T08:54:58.945Z"
121,-0.6709717,0.45324707,0.5134131,261,"2022-12-26T08:55:59.508Z"
133,-0.6744678,0.47889405,0.52030027,259,"2022-12-26T08:57:00.070Z"
134,-0.6788965,0.4602246,0.5036011,260,"2022-12-26T08:58:00.632Z"
123,-0.34959716,0.7303906,-0.42316896,259,"2022-12-26T08:59:01.194Z"
91,0.79921633,0.17672607,0.56307864,258,"2022-12-26T09:00:01.757Z"
74,0.87042725,0.10248291,0.51008546,259,"2022-12-26T09:01:02.319Z"
80,-0.63823974,0.7391455,-0.1289453,259,"2022-12-26T09:02:02.881Z"
92,-0.47407958,0.8096509,0.3847534,258,"2022-12-26T09:03:03.443Z"
79,-0.38151854,0.90989256,-0.011135254,255,"2022-12-26T09:04:04.006Z"
76,-0.022165528,0.74466795,-0.50177735,252,"2022-12-26T09:05:04.568Z"
99,-0.7201245,0.4398584,0.5038599,252,"2022-12-26T09:06:05.130Z"
98,-0.6789502,0.45892578,0.55521727,250,"2022-12-26T09:07:05.692Z"
84,-0.44301268,0.6787891,0.55131835,247,"2022-12-26T09:08:06.255Z"
91,-0.7432422,0.29747558,0.5599048,249,"2022-12-26T09:09:06.817Z"
90,-0.6984424,0.431438,0.53474855,247,"2022-12-26T09:10:07.379Z"
93,-0.69678956,0.42483643,0.539314,247,"2022-12-26T09:11:07.941Z"
78,-0.39820558,0.41271728,0.79572266,245,"2022-12-26T09:12:08.504Z"
101,-0.71789795,0.41156495,0.4643408,246,"2022-12-26T09:13:09.066Z"
110,-0.62931395,0.59613526,0.45276856,246,"2022-12-26T09:14:09.628Z"
94,-0.5539722,0.6579761,0.45517823,247,"2022-12-26T09:15:10.191Z"
84,-0.6881079,0.45252442,0.5458838,248,"2022-12-26T09:16:10.753Z"
78,0.39220458,0.6741382,-0.63848877,248,"2022-12-26T09:17:11.315Z"
85,0.36920166,0.72627443,-0.59700197,247,"2022-12-26T09:18:11.877Z"
85,-0.95199466,0.4554834,0.16733155,246,"2022-12-26T09:19:12.440Z"
99,-0.18428954,0.973208,0.0004296875,247,"2022-12-26T09:20:13.002Z"
90,-0.008999024,0.89823973,-0.3919629,248,"2022-12-26T09:21:13.564Z"
81,0.45941162,0.7998437,-0.44912842,247,"2022-12-26T09:22:14.126Z"
80,-0.28038085,0.6332324,-0.595459,246,"2022-12-26T09:23:14.689Z"
76,-0.15369628,0.64848876,0.56409425,248,"2022-12-26T09:24:15.251Z"
84,-0.06083252,0.07077393,0.9833252,251,"2022-12-26T09:25:15.813Z"
81,-0.23174804,0.23392822,0.8495728,253,"2022-12-26T09:26:16.375Z"
87,0.49769533,0.66012937,0.563081,254,"2022-12-26T09:27:16.938Z"
71,0.78804934,0.29135254,0.5641821,256,"2022-12-26T09:28:17.500Z"
67,-0.20590821,0.7713892,-0.59791017,257,"2022-12-26T09:29:18.062Z"
60,0.89512694,-0.10778564,0.47385743,260,"2022-12-26T09:30:18.625Z"
69,0.36397704,0.66484374,0.6326929,261,"2022-12-26T09:31:19.187Z"
63,0.4674536,0.34750977,0.80805176,261,"2022-12-26T09:32:19.749Z"
64,0.25761962,0.62544435,0.7270337,262,"2022-12-26T09:33:20.311Z"
71,0.332583,0.8704565,0.32393065,262,"2022-12-26T09:34:20.874Z"
76,0.3522168,0.16403809,0.91150147,262,"2022-12-26T09:35:21.436Z"
87,-0.07037598,0.8463355,-0.013920899,263,"2022-12-26T09:36:21.998Z"
75,-0.031520996,0.31970704,0.9368652,264,"2022-12-26T09:37:22.560Z"
76,-0.024384765,0.3540796,0.9235864,265,"2022-12-26T09:38:23.123Z"
56,-0.015429688,0.4645703,0.87303466,266,"2022-12-26T09:39:23.685Z"
63,-0.005456543,0.5732105,0.8051025,266,"2022-12-26T09:40:24.247Z"
54,0.085527346,0.54016846,0.8244629,268,"2022-12-26T09:41:24.809Z"
52,0.102873534,0.497312,0.85232425,270,"2022-12-26T09:42:25.372Z"
54,0.12289551,0.42854005,0.90077883,272,"2022-12-26T09:43:25.934Z"
61,-0.12905762,0.9997583,-0.030744629,275,"2022-12-26T09:44:26.496Z"
54,0.04994385,0.44091797,0.8851587,278,"2022-12-26T09:45:27.058Z"
51,0.04852295,0.41675538,0.89764893,279,"2022-12-26T09:46:27.621Z"
51,0.050854493,0.38307616,0.91315186,282,"2022-12-26T09:47:28.183Z"
52,0.03357666,0.4296289,0.89130616,285,"2022-12-26T09:48:28.745Z"
54,0.022875976,0.49032715,0.85932374,288,"2022-12-26T09:49:29.307Z"
65,0.07380127,0.54256105,0.8249365,291,"2022-12-26T09:50:29.870Z"
56,0.14084716,0.5475952,0.81403077,294,"2022-12-26T09:51:30.432Z"
59,0.1482666,0.48547852,0.85296875,296,"2022-12-26T09:52:30.994Z"
57,0.07591064,0.5550757,0.8156885,299,"2022-12-26T09:53:31.556Z"
56,-0.0076245116,0.50905764,0.84746826,301,"2022-12-26T09:54:32.118Z"
51,-0.0008203125,0.5823584,0.797417,303,"2022-12-26T09:55:32.681Z"
52,0.006730957,0.57388186,0.8043213,305,"2022-12-26T09:56:33.243Z"
77,0.092670895,0.47761232,0.8633472,307,"2022-12-26T09:57:33.805Z"
49,0.080263674,0.49055663,0.85627687,311,"2022-12-26T09:58:34.367Z"
59,-0.062353514,0.28276855,0.9451563,313,"2022-12-26T09:59:34.929Z"
49,0.21815674,0.8765698,-0.43473876,315,"2022-12-26T10:00:35.492Z"
50,0.2220044,0.9693799,-0.10018311,317,"2022-12-26T10:01:36.054Z"
58,0.10442871,0.4280176,0.88884765,318,"2022-12-26T10:02:36.616Z"
59,0.8401416,0.35830078,0.32069093,317,"2022-12-26T10:03:37.178Z"
54,0.0955835,0.450625,0.87702394,317,"2022-12-26T10:04:37.740Z"
62,0.95493406,0.31985596,0.1365332,318,"2022-12-26T10:05:38.303Z"
54,0.17096436,0.5707275,0.7949707,318,"2022-12-26T10:06:38.865Z"
51,0.20897949,0.6304419,0.7390527,317,"2022-12-26T10:07:39.427Z"
54,0.15921631,0.5400415,0.8190991,319,"2022-12-26T10:08:39.989Z"
53,0.26737794,0.4489502,0.84750974,318,"2022-12-26T10:09:40.552Z"
53,0.18613282,0.5685156,0.798042,319,"2022-12-26T10:10:41.114Z"
76,0.32013428,0.91237795,-0.25555176,319,"2022-12-26T10:11:41.676Z"
55,-0.15690674,0.59287596,-0.79581296,319,"2022-12-26T10:12:42.238Z"
49,-0.16744629,0.73556155,-0.65567136,320,"2022-12-26T10:13:42.800Z"
56,0.16469726,0.6755957,-0.72756594,321,"2022-12-26T10:14:43.363Z"
61,-0.2692676,0.798811,-0.5315893,321,"2022-12-26T10:15:43.925Z"
57,-0.21607421,0.8623706,-0.45026124,321,"2022-12-26T10:16:44.487Z"
61,-0.14273438,0.8202954,-0.5519726,323,"2022-12-26T10:17:45.049Z"
71,0.7254443,0.42010254,-0.46770507,323,"2022-12-26T10:18:45.611Z"
72,-0.14138916,0.7021509,-0.67821777,322,"2022-12-26T10:19:46.174Z"
78,-0.76387453,0.5590503,0.26032716,321,"2022-12-26T10:20:46.736Z"
69,0.13136719,0.5734619,0.8012622,321,"2022-12-26T10:21:47.298Z"
55,0.30586424,0.39348143,0.8622559,320,"2022-12-26T10:22:47.860Z"
46,0.2518164,0.40003908,0.8770532,319,"2022-12-26T10:23:48.422Z"
53,0.18635009,0.2727661,0.93888426,319,"2022-12-26T10:24:48.985Z"
49,0.40253663,0.79193115,-0.4197241,319,"2022-12-26T10:25:49.547Z"
48,0.16693115,0.5872778,0.7825293,319,"2022-12-26T10:26:50.109Z"
47,0.15956299,0.4476489,0.8720215,317,"2022-12-26T10:27:50.671Z"
55,0.9903442,0.20082276,0.116347656,320,"2022-12-26T10:28:51.233Z"
47,0.9605566,-0.020935059,0.34264404,319,"2022-12-26T10:29:51.796Z"
54,0.21717529,0.38281006,0.8905762,318,"2022-12-26T10:30:52.358Z"
56,0.08822754,0.66658205,0.7268872,320,"2022-12-26T10:31:52.920Z"
54,0.26065674,0.40055177,0.87368166,318,"2022-12-26T10:32:53.482Z"
52,0.21083008,0.75509524,0.6101929,319,"2022-12-26T10:33:54.044Z"
52,0.0510376,0.5155591,0.84315187,318,"2022-12-26T10:34:54.607Z"
51,0.15559326,0.3877539,0.90164304,318,"2022-12-26T10:35:55.169Z"
58,0.115637206,0.47976562,0.8606274,319,"2022-12-26T10:36:55.731Z"
62,0.15797363,0.5804419,0.7885254,319,"2022-12-26T10:37:56.293Z"
62,0.12083496,0.5467627,0.8179028,319,"2022-12-26T10:38:56.855Z"
54,0.1120459,0.52434814,0.83310056,320,"2022-12-26T10:39:57.418Z"
54,0.9942749,-0.19134277,0.13934082,319,"2022-12-26T10:40:57.980Z"
52,0.9929028,0.17554687,0.14114991,321,"2022-12-26T10:41:58.542Z"
57,0.22763428,0.64729005,0.71625,318,"2022-12-26T10:42:59.104Z"
62,0.24428467,0.9608936,-0.13539796,318,"2022-12-26T10:43:59.667Z"
52,0.19108887,0.4525879,0.8647339,318,"2022-12-26T10:45:00.229Z"
57,0.13454834,0.5556714,0.80819094,319,"2022-12-26T10:46:00.791Z"
54,0.15465088,0.59578615,0.77885985,318,"2022-12-26T10:47:01.353Z"
57,0.994292,-0.12320313,0.14715332,319,"2022-12-26T10:48:01.915Z"
58,0.8702124,-0.2608179,0.41983643,318,"2022-12-26T10:49:02.478Z"
53,0.21143067,0.61507815,0.7467334,317,"2022-12-26T10:50:03.040Z"
60,0.22748536,0.5076025,0.82501954,318,"2022-12-26T10:51:03.602Z"
51,0.14700684,0.5646826,0.80518067,318,"2022-12-26T10:52:04.164Z"
51,0.103044435,0.27526855,0.94903076,318,"2022-12-26T10:53:04.726Z"
58,-0.00795166,0.5676465,0.8082202,319,"2022-12-26T10:54:05.289Z"
58,0.07962403,0.5291431,0.8364966,321,"2022-12-26T10:55:05.851Z"
57,0.1393628,0.93959475,0.29063234,321,"2022-12-26T10:56:06.413Z"
51,0.13013428,0.50753176,0.8435571,320,"2022-12-26T10:57:06.975Z"
57,0.13393067,0.7722119,0.6075195,321,"2022-12-26T10:58:07.537Z"
51,0.13850586,0.51725096,0.8358838,320,"2022-12-26T10:59:08.100Z"
53,0.08192627,0.38146728,0.91180176,319,"2022-12-26T11:00:08.662Z"
52,0.10686279,0.55407715,0.8118384,321,"2022-12-26T11:01:09.224Z"
51,0.2284497,0.44305176,0.86095214,321,"2022-12-26T11:02:09.786Z"
52,0.18789306,0.5876489,0.7534082,321,"2022-12-26T11:03:10.348Z"
55,0.08929199,0.43066162,0.8855249,321,"2022-12-26T11:04:10.911Z"
54,0.09277099,0.41027343,0.8996094,321,"2022-12-26T11:05:11.473Z"
50,0.04973389,0.5007593,0.8510962,322,"2022-12-26T11:06:12.035Z"
48,0.040046386,0.48537353,0.8619946,322,"2022-12-26T11:07:12.597Z"
68,0.26724365,0.9105469,-0.32185546,320,"2022-12-26T11:08:13.159Z"
52,0.2750537,0.8363843,-0.48503172,319,"2022-12-26T11:09:13.722Z"
52,0.30998048,0.9127197,-0.2813281,318,"2022-12-26T11:10:14.284Z"
56,0.32955077,0.909707,-0.26499268,318,"2022-12-26T11:11:14.846Z"
52,0.40509522,0.9097412,-0.12893555,318,"2022-12-26T11:12:15.408Z"
52,0.35049805,0.9203857,-0.19653076,317,"2022-12-26T11:13:15.970Z"
63,-0.34888184,0.9685889,-0.16643311,316,"2022-12-26T11:14:16.533Z"
78,-0.6050244,0.4147583,0.6697412,315,"2022-12-26T11:15:17.095Z"
75,-0.7800708,0.5583594,0.15509522,315,"2022-12-26T11:16:17.657Z"
89,0.43912354,0.6610718,-0.46235108,315,"2022-12-26T11:17:18.219Z"
86,-0.075466305,0.8033106,0.41469726,314,"2022-12-26T11:18:18.781Z"
67,-0.98677737,0.5366846,0.1393872,313,"2022-12-26T11:19:19.344Z"
91,-0.9836328,0.4813452,0.14190918,309,"2022-12-26T11:20:19.906Z"
88,-0.99709964,0.5219971,0.12795898,306,"2022-12-26T11:21:20.468Z"
85,-1.2984009,0.58810544,0.009230957,302,"2022-12-26T11:22:21.030Z"
89,-0.3301416,0.90901124,-0.22383301,298,"2022-12-26T11:23:21.593Z"
71,-0.6798437,0.42139894,0.59454346,292,"2022-12-26T11:24:22.155Z"
80,-0.30977538,0.4013379,0.8320923,289,"2022-12-26T11:25:22.717Z"
77,-0.5800879,0.48544922,0.6195801,286,"2022-12-26T11:26:23.279Z"
68,-0.64751464,0.5739429,0.4792749,283,"2022-12-26T11:27:23.842Z"
103,-0.6465942,0.5690796,0.50446045,277,"2022-12-26T11:28:24.404Z"
73,-0.6524438,0.5689502,0.49772218,275,"2022-12-26T11:29:24.966Z"
73,-0.56253415,0.5380298,0.59066164,273,"2022-12-26T11:30:25.528Z"
104,-0.7662451,0.32809326,0.51873046,269,"2022-12-26T11:31:26.090Z"
104,-0.6818433,0.4118286,0.5760986,268,"2022-12-26T11:32:26.653Z"
112,-0.63546634,0.53034914,0.5007495,265,"2022-12-26T11:33:27.215Z"
123,-0.94493896,0.41783935,-0.07027099,265,"2022-12-26T11:34:27.777Z"
112,-0.6864355,0.46463868,0.52763426,262,"2022-12-26T11:35:28.339Z"
64,-0.6978564,0.5133789,0.47808105,263,"2022-12-26T11:36:28.902Z"
67,-0.59705323,0.58187747,0.48858643,262,"2022-12-26T11:37:29.464Z"
122,-0.6153101,0.5758496,0.49550292,259,"2022-12-26T11:38:30.026Z"
111,-0.60000247,0.57925534,0.49939698,255,"2022-12-26T11:39:30.588Z"
97,0.18590088,0.85054934,-0.5012744,255,"2022-12-26T11:40:31.151Z"
104,-0.6286084,0.5467798,0.49447754,249,"2022-12-26T11:41:31.713Z"
112,-0.6292749,0.5063672,0.5263623,249,"2022-12-26T11:42:32.275Z"
108,-0.59542483,0.6854175,0.4125708,250,"2022-12-26T11:43:32.837Z"
107,-0.6704761,0.28298828,0.614375,248,"2022-12-26T11:44:33.400Z"
103,0.09647949,0.7178516,-0.76148194,249,"2022-12-26T11:45:33.962Z"
91,-0.9548242,0.45136476,0.110666506,249,"2022-12-26T11:46:34.524Z"
90,-0.8159692,0.54452395,0.059724122,248,"2022-12-26T11:47:35.087Z"
86,-0.77895755,0.51149416,-0.34117186,247,"2022-12-26T11:48:35.649Z"
90,-0.12143799,0.70491946,-0.70001465,248,"2022-12-26T11:49:36.211Z"
56,-0.113771975,0.9015137,-0.41172364,253,"2022-12-26T11:50:36.773Z"
71,-0.45519286,0.73422605,-0.39518312,252,"2022-12-26T11:51:37.336Z"
81,-0.0013671875,0.6427271,0.6358447,252,"2022-12-26T11:52:37.898Z"
77,-1.0463135,0.541499,0.038981933,255,"2022-12-26T11:53:38.460Z"
106,-0.5328589,0.8035669,0.016901856,253,"2022-12-26T11:54:39.022Z"
98,0.1773877,0.8812744,-0.3275659,259,"2022-12-26T11:55:39.585Z"
85,0.27113768,0.8777954,-0.40561768,263,"2022-12-26T11:56:40.147Z"
100,1.056062,0.025534667,0.13439697,268,"2022-12-26T11:57:40.709Z"
85,0.05031494,0.8772314,-0.47008544,269,"2022-12-26T11:58:41.271Z"
85,0.97559327,-0.10967285,0.09315918,269,"2022-12-26T11:59:41.834Z"
110,0.009191895,0.90341306,0.4058203,273,"2022-12-26T12:00:42.396Z"
96,-0.5674365,0.5710205,-0.42968994,273,"2022-12-26T12:01:42.958Z"
103,-0.6245215,0.5481763,0.5324976,274,"2022-12-26T12:02:43.521Z"
96,-0.90229493,0.3624536,0.076918945,275,"2022-12-26T12:03:44.083Z"
119,-1.0595093,-0.01442627,-0.19650146,276,"2022-12-26T12:04:44.645Z"
110,-0.73702395,0.5528906,-0.46779296,276,"2022-12-26T12:05:45.207Z"
112,-0.916416,0.369812,0.069699705,277,"2022-12-26T12:06:45.770Z"
84,0.13509278,0.78862303,-0.5524878,275,"2022-12-26T12:07:46.332Z"
86,0.98311526,-0.07351807,0.08388672,278,"2022-12-26T12:08:46.894Z"
108,-0.9609375,0.14572266,-0.14152344,280,"2022-12-26T12:09:47.456Z"
110,-0.8587085,0.46953368,0.05466553,281,"2022-12-26T12:10:48.019Z"
110,-0.45041505,0.7533057,-0.441521,284,"2022-12-26T12:11:48.581Z"
110,-0.048471678,0.7728125,-0.57157713,282,"2022-12-26T12:12:49.143Z"
87,0.76081544,0.5984375,-0.067409664,278,"2022-12-26T12:13:49.705Z"
82,0.09306152,0.9723291,0.03446533,279,"2022-12-26T12:14:50.267Z"
93,-0.96688235,-0.0166333,0.16780274,280,"2022-12-26T12:15:50.830Z"
106,-0.8719141,0.44341797,-0.09023193,282,"2022-12-26T12:16:51.392Z"
110,-0.937749,0.39337158,0.21236084,285,"2022-12-26T12:17:51.954Z"
109,-0.50199705,0.6006811,-0.6280005,286,"2022-12-26T12:18:52.516Z"
97,-0.12859374,0.9623901,0.09115723,283,"2022-12-26T12:19:53.079Z"
94,-0.058330078,0.9694214,0.19426757,284,"2022-12-26T12:20:53.641Z"
90,0.04216797,0.97947264,-0.18555664,283,"2022-12-26T12:21:54.203Z"
81,-0.1996997,0.920188,0.30811036,286,"2022-12-26T12:22:54.765Z"
82,0.73646,0.62740237,-0.28144288,284,"2022-12-26T12:23:55.328Z"
82,-0.25609863,-0.91223145,-0.3627417,284,"2022-12-26T12:24:55.890Z"
90,-0.38267577,-0.91579103,-0.1712378,286,"2022-12-26T12:25:56.452Z"
92,0.7386401,0.40425536,0.55822754,284,"2022-12-26T12:26:57.014Z"
82,-0.90072995,0.063312985,0.3056494,285,"2022-12-26T12:27:57.576Z"
96,-0.72246826,0.62331545,0.17344238,286,"2022-12-26T12:28:58.139Z"
94,0.1712085,0.8005054,-0.57802004,286,"2022-12-26T12:29:58.701Z"
62,-0.63253176,0.721438,0.044855956,238,"2022-12-26T12:39:02.794Z"
98,-0.16283447,0.89249265,-0.16840088,274,"2022-12-26T12:40:03.356Z"
88,-0.79579836,0.5593799,-0.19403565,286,"2022-12-26T12:41:03.918Z"
93,0.16783203,0.67070556,-0.7387256,292,"2022-12-26T12:42:04.480Z"
99,0.3507715,0.7988818,-0.4787085,292,"2022-12-26T12:43:05.043Z"
107,-0.82875,0.28041017,0.44702393,294,"2022-12-26T12:44:05.605Z"
110,-0.6929321,0.53478026,0.4249292,295,"2022-12-26T12:45:06.167Z"
110,-0.8871777,0.27191162,0.350188,294,"2022-12-26T12:46:06.729Z"
83,-0.3822461,0.74522215,-0.53779054,292,"2022-12-26T12:47:07.291Z"
99,-0.6736206,0.52114505,0.47000244,292,"2022-12-26T12:48:07.854Z"
98,-0.5997608,0.64182127,0.38160646,293,"2022-12-26T12:49:08.416Z"
89,0.1348291,0.74198484,-0.66592526,292,"2022-12-26T12:50:08.978Z"
79,-0.75206053,0.513147,0.37233153,290,"2022-12-26T12:51:09.540Z"
101,-0.70948243,0.4714331,0.4711206,290,"2022-12-26T12:52:10.103Z"
84,-0.68972415,0.54696774,0.3944043,289,"2022-12-26T12:53:10.665Z"
75,-0.82226807,0.4017285,0.3443042,288,"2022-12-26T12:54:11.227Z"
91,-0.76325196,0.4571582,0.40456787,286,"2022-12-26T12:55:11.789Z"
76,-0.7419678,0.3831836,0.47619385,284,"2022-12-26T12:56:12.336Z"
85,-0.68473876,0.49505126,0.45994627,284,"2022-12-26T12:57:12.899Z"
107,-0.6997998,0.6155054,0.31519777,283,"2022-12-26T12:58:13.461Z"
86,-0.68797606,0.54522705,0.4515918,283,"2022-12-26T12:59:14.023Z"
91,-0.78541017,0.34623536,0.4698413,280,"2022-12-26T13:00:14.585Z"
91,-0.6746387,0.51144046,0.48598388,277,"2022-12-26T13:01:15.148Z"
98,-0.6638306,0.52257323,0.43358886,275,"2022-12-26T13:02:15.710Z"
92,-0.7165552,0.4457959,0.5028125,273,"2022-12-26T13:03:16.272Z"
87,-0.49915284,0.78121096,0.23369628,271,"2022-12-26T13:04:16.834Z"
91,-0.35971436,0.9292578,0.20053954,271,"2022-12-26T13:05:17.397Z"
78,-0.3091455,0.7707056,-0.5829272,270,"2022-12-26T13:06:17.959Z"
63,0.07731445,1.0003198,-0.06310303,268,"2022-12-26T13:07:18.521Z"
77,-0.3996289,0.8460889,0.03996582,270,"2022-12-26T13:08:19.083Z"
78,-0.05934082,0.7106592,-0.6937158,273,"2022-12-26T13:09:19.646Z"
79,0.17896241,0.9654761,-0.14695312,275,"2022-12-26T13:10:20.208Z"
72,-0.8977002,0.393313,-0.12492187,276,"2022-12-26T13:11:20.770Z"
75,0.3554956,0.83395994,-0.3457495,278,"2022-12-26T13:12:21.333Z"
82,-0.55150634,0.776023,0.20070069,279,"2022-12-26T13:13:21.895Z"
64,-0.5887671,0.7799487,0.12993409,280,"2022-12-26T13:14:22.457Z"
58,-0.014372558,0.8332544,-0.5468921,282,"2022-12-26T13:15:23.019Z"
77,0.101533204,0.8666675,-0.44553468,283,"2022-12-26T13:16:23.581Z"
68,-0.18529785,0.89843506,-0.2581299,285,"2022-12-26T13:17:24.144Z"
65,-0.71631837,0.6064551,0.13125244,286,"2022-12-26T13:18:24.706Z"
75,-0.9011255,0.2129956,0.4162329,288,"2022-12-26T13:19:25.268Z"
75,-0.7081592,0.51356936,0.44263917,288,"2022-12-26T13:20:25.830Z"
75,-0.73359376,0.4547876,0.46506837,289,"2022-12-26T13:21:26.393Z"
77,-0.658772,0.59887695,0.42138672,289,"2022-12-26T13:22:26.955Z"
78,-0.728916,0.49291992,0.43690673,287,"2022-12-26T13:23:27.517Z"
82,-0.12251221,0.85178465,-0.48061034,283,"2022-12-26T13:24:28.079Z"
59,-0.49408203,0.6014917,0.59586424,280,"2022-12-26T13:25:28.642Z"
63,-0.6543628,0.5791724,0.41779298,279,"2022-12-26T13:26:29.204Z"
81,-0.72070557,0.620769,0.04678467,281,"2022-12-26T13:27:29.766Z"
80,-0.4719043,0.81309813,0.04123047,282,"2022-12-26T13:28:30.328Z"
71,-0.59268796,0.7831299,-0.104624026,284,"2022-12-26T13:29:30.891Z"
64,-0.18998535,0.6274536,-0.7549829,284,"2022-12-26T13:30:31.453Z"
70,-0.3732422,0.86285156,0.19045898,287,"2022-12-26T13:31:32.015Z"
62,-0.51334226,0.66703856,-0.3369165,286,"2022-12-26T13:32:32.577Z"
63,-0.5925122,0.7910083,0.005766602,287,"2022-12-26T13:33:33.139Z"
64,0.25820556,0.864353,-0.43479738,287,"2022-12-26T13:34:33.702Z"
68,0.19127929,0.98062253,-0.0300708,289,"2022-12-26T13:35:34.264Z"
70,0.31615722,0.9358984,0.14977783,291,"2022-12-26T13:36:34.826Z"
64,0.3380957,0.90043455,0.2685205,294,"2022-12-26T13:37:35.388Z"
60,0.018059082,0.6974634,-0.74959964,296,"2022-12-26T13:38:35.951Z"
71,0.053989258,0.9641089,0.22400878,294,"2022-12-26T13:39:36.513Z"
70,-0.1721875,0.8750439,0.1257544,296,"2022-12-26T13:40:37.075Z"
69,-0.6055469,0.7708618,0.06808838,298,"2022-12-26T13:41:37.637Z"
65,0.114487305,0.9277197,0.34195313,300,"2022-12-26T13:42:38.199Z"
75,0.4166162,0.8718164,0.22848877,301,"2022-12-26T13:43:38.762Z"
69,0.21273926,0.946604,0.25205812,302,"2022-12-26T13:44:39.324Z"
64,0.5738989,0.5068823,-0.5873193,302,"2022-12-26T13:45:39.886Z"
65,-0.98567384,-0.050932616,-0.017336426,303,"2022-12-26T13:46:40.448Z"
70,-0.5007153,0.67644775,-0.542478,303,"2022-12-26T13:47:41.011Z"
67,0.055783693,0.9823315,0.12605713,304,"2022-12-26T13:48:41.573Z"
65,0.07586914,0.8225122,-0.5414209,305,"2022-12-26T13:49:42.135Z"
70,-0.1762329,0.97208494,0.05133545,305,"2022-12-26T13:50:42.697Z"
71,-0.08419433,0.96666014,-0.2346289,305,"2022-12-26T13:51:43.260Z"
105,-0.56877685,0.7823877,-0.1598999,304,"2022-12-26T13:52:43.822Z"
105,-0.39414552,0.7646167,0.32337648,303,"2022-12-26T13:53:44.384Z"
78,-0.5124487,0.8355542,0.11005859,302,"2022-12-26T13:54:44.946Z"
67,-0.3366797,0.7313208,-0.31854737,302,"2022-12-26T13:55:45.509Z"
66,-0.9231812,0.576438,0.17106934,303,"2022-12-26T13:56:46.071Z"
80,-0.81672853,0.4394922,0.28973633,301,"2022-12-26T13:57:46.633Z"
73,-0.63572997,0.6451318,0.3272461,300,"2022-12-26T13:58:47.195Z"
76,-0.83424807,0.44415528,-0.025629884,299,"2022-12-26T13:59:47.757Z"
75,0.059851073,0.51987547,-0.8613696,299,"2022-12-26T14:00:48.320Z"
56,-0.8589917,0.46726808,-0.07795166,296,"2022-12-26T14:01:48.882Z"
65,-0.28416502,0.8492017,0.120136715,295,"2022-12-26T14:02:49.444Z"
68,-0.8608838,0.18111084,-0.47355956,297,"2022-12-26T14:03:50.006Z"
68,-0.87918943,0.37131348,0.2229834,299,"2022-12-26T14:04:50.568Z"
64,-0.05227539,0.8917505,-0.45026124,301,"2022-12-26T14:05:51.131Z"
50,-0.15960693,0.9783301,-0.042089842,304,"2022-12-26T14:06:51.693Z"
54,-0.17977294,0.9740796,0.013483887,305,"2022-12-26T14:07:52.255Z"
58,0.059221193,0.9421338,0.29032716,306,"2022-12-26T14:08:52.817Z"
57,-0.039567873,0.9090552,0.38991943,310,"2022-12-26T14:09:53.380Z"
57,0.11098633,0.9522485,-0.28444335,312,"2022-12-26T14:10:53.942Z"
57,-0.005895996,0.9763086,-0.20018798,313,"2022-12-26T14:11:54.504Z"
52,-0.12112549,0.92734617,-0.34360597,314,"2022-12-26T14:12:55.066Z"
52,0.105461426,0.9590869,0.22956055,314,"2022-12-26T14:13:55.628Z"
62,-0.002290039,0.974707,-0.20837647,317,"2022-12-26T14:14:56.191Z"
53,0.06777832,0.9869458,0.09268799,319,"2022-12-26T14:15:56.753Z"
62,0.041694336,0.73496336,-0.68323,320,"2022-12-26T14:16:57.315Z"
69,-0.5083447,0.7829541,-0.31888184,321,"2022-12-26T14:17:57.877Z"
78,0.032878418,0.8483472,-0.2576001,320,"2022-12-26T14:18:58.439Z"
72,-0.87772703,0.4261548,0.09121094,321,"2022-12-26T14:19:59.002Z"
71,-0.87070554,0.39728516,0.19021973,321,"2022-12-26T14:20:59.564Z"
79,0.20596924,0.48027587,-0.8608423,321,"2022-12-26T14:22:00.126Z"
55,-0.6525024,0.7564087,0.25416017,321,"2022-12-26T14:23:00.688Z"
74,-0.7048193,0.5217432,0.4501465,317,"2022-12-26T14:24:01.250Z"
84,-0.73356444,0.45459718,0.45778808,314,"2022-12-26T14:25:01.813Z"
85,-0.08093017,0.70016843,-0.71161133,309,"2022-12-26T14:26:02.375Z"
79,-0.7077832,0.43666017,0.51708984,307,"2022-12-26T14:27:02.937Z"
87,-0.69785154,0.45024168,0.4790039,304,"2022-12-26T14:28:03.499Z"
73,-0.57017577,0.47491455,0.6345337,302,"2022-12-26T14:29:04.062Z"
61,-0.6775171,0.5237329,0.46989015,301,"2022-12-26T14:30:04.624Z"
77,-0.7090991,0.5210083,0.440083,300,"2022-12-26T14:31:05.186Z"
91,-0.8849829,0.39903808,0.121308595,299,"2022-12-26T14:32:05.748Z"
86,-0.750708,0.41490477,0.43425536,298,"2022-12-26T14:33:06.311Z"
89,-0.9260864,-0.3319287,0.09369141,295,"2022-12-26T14:34:06.873Z"
76,-0.50021243,0.82257324,0.11895996,296,"2022-12-26T14:35:07.435Z"
58,-0.2665283,0.8263403,-0.055476073,299,"2022-12-26T14:36:07.997Z"
62,-0.7320996,0.5125439,0.40266845,301,"2022-12-26T14:37:08.559Z"
71,-0.58657473,0.646875,0.45506105,301,"2022-12-26T14:38:09.122Z"
81,-0.7054053,0.50885254,0.4597998,299,"2022-12-26T14:39:09.684Z"
82,-0.7763745,0.48681152,0.37325683,295,"2022-12-26T14:40:10.246Z"
74,-0.7167627,0.40768066,0.53042966,293,"2022-12-26T14:41:10.808Z"
80,-0.70651364,0.50334716,0.4516211,289,"2022-12-26T14:42:11.371Z"
90,-0.6973218,0.53653073,0.4342871,288,"2022-12-26T14:43:11.933Z"
96,-0.4030615,0.20634033,0.8739355,287,"2022-12-26T14:44:12.495Z"
73,-0.82372314,0.09587403,0.47819823,287,"2022-12-26T14:45:13.057Z"
78,0.12211182,1.0026124,0.026096191,286,"2022-12-26T14:46:13.620Z"
78,-0.93645996,0.25835449,0.13431153,284,"2022-12-26T14:47:14.182Z"
58,-0.9705517,0.15072265,0.08160645,286,"2022-12-26T14:48:14.744Z"
69,0.14012451,0.94224364,-0.3060962,284,"2022-12-26T14:49:15.306Z"
61,0.2181128,0.9298267,-0.30929688,283,"2022-12-26T14:50:15.868Z"
58,0.21723388,0.83929443,-0.40096435,281,"2022-12-26T14:51:16.431Z"
67,-0.33446288,0.9267895,-0.08759033,281,"2022-12-26T14:52:16.993Z"
59,-0.9585937,0.20149659,0.07479004,284,"2022-12-26T14:53:17.555Z"
65,-0.94080323,0.23647705,0.13407959,284,"2022-12-26T14:54:18.117Z"
81,-0.9642114,0.23675048,0.14304687,285,"2022-12-26T14:55:18.680Z"
77,-0.93072265,0.2380713,0.15311767,285,"2022-12-26T14:56:19.242Z"
88,-0.94301516,0.29731202,0.111015625,286,"2022-12-26T14:57:19.804Z"
93,-0.8324048,0.22574706,-0.48871583,285,"2022-12-26T14:58:20.366Z"
90,-0.65039307,0.6851245,-0.16044189,287,"2022-12-26T14:59:20.929Z"
84,-0.9112988,0.3098706,0.15801269,289,"2022-12-26T15:00:21.491Z"
69,-0.8028418,0.5101929,0.12526123,291,"2022-12-26T15:01:22.053Z"
74,-0.22796875,0.92703855,-0.032224122,289,"2022-12-26T15:02:22.615Z"
69,-0.035048828,0.88705564,-0.4436499,291,"2022-12-26T15:03:23.177Z"
73,-0.8110205,0.5285254,-0.17001465,291,"2022-12-26T15:04:23.740Z"
60,0.19868408,0.51822263,-0.83838624,288,"2022-12-26T15:05:24.302Z"
69,-0.45498535,0.87164307,0.043710936,287,"2022-12-26T15:06:24.864Z"
57,-0.9090723,0.41474366,-0.021486817,289,"2022-12-26T15:07:25.427Z"
57,-0.91360354,0.33779785,0.07043945,293,"2022-12-26T15:08:25.989Z"
60,0.02281494,0.55317384,-0.84121585,296,"2022-12-26T15:09:26.551Z"
58,0.081291504,0.6537817,-0.7422461,299,"2022-12-26T15:10:27.113Z"
57,0.015251465,0.44013673,-0.90748537,300,"2022-12-26T15:11:27.676Z"
56,-0.08036865,0.46976808,-0.8861963,302,"2022-12-26T15:12:28.238Z"
68,0.12920167,0.9837524,-0.074035645,304,"2022-12-26T15:13:28.800Z"
62,0.013254395,0.7235132,-0.72297853,304,"2022-12-26T15:14:29.362Z"
70,0.14145264,0.64464843,-0.732312,304,"2022-12-26T15:15:29.924Z"
68,0.36769286,0.87174803,-0.23009034,304,"2022-12-26T15:16:30.486Z"
66,-0.18371093,0.9217407,-0.18861328,306,"2022-12-26T15:17:31.049Z"
68,0.86086184,0.29008058,0.4420117,305,"2022-12-26T15:18:31.611Z"
60,0.1207666,0.4852246,-0.877229,307,"2022-12-26T15:19:32.173Z"
66,0.4551001,0.13958251,0.69244385,309,"2022-12-26T15:20:32.736Z"
61,-0.73154294,0.60339844,0.24248534,310,"2022-12-26T15:21:33.298Z"
79,-0.0031591796,0.92595947,-0.29018065,311,"2022-12-26T15:22:33.860Z"
61,0.3314209,0.80036134,-0.50801516,313,"2022-12-26T15:23:34.422Z"
62,0.16399413,0.7417578,-0.65498537,316,"2022-12-26T15:24:34.984Z"
62,-0.32359132,0.9337622,0.05558838,317,"2022-12-26T15:25:35.547Z"
70,-0.061728515,0.934978,0.12534668,318,"2022-12-26T15:26:36.108Z"
51,0.4537622,0.6368555,-0.6401245,318,"2022-12-26T15:27:36.671Z"
52,0.31282958,0.6147339,-0.7358643,319,"2022-12-26T15:28:37.233Z"
59,-0.91054446,0.32671875,-0.224375,321,"2022-12-26T15:29:37.795Z"
59,0.16894776,0.9663159,-0.19062744,321,"2022-12-26T15:30:38.358Z"
59,0.31808594,0.82958984,-0.4717871,323,"2022-12-26T15:31:38.920Z"
55,0.6665161,0.7322729,-0.1975,323,"2022-12-26T15:32:39.482Z"
59,0.6430395,0.70043945,-0.34116212,325,"2022-12-26T15:33:40.044Z"
57,0.576604,0.8244165,-0.048635256,322,"2022-12-26T15:34:40.606Z"
61,0.36520264,0.8353149,-0.41168457,325,"2022-12-26T15:35:41.169Z"
69,-0.021833496,0.63847166,-0.7709595,327,"2022-12-26T15:36:41.731Z"
87,0.08227539,0.69963866,-0.7189917,326,"2022-12-26T15:37:42.293Z"
60,0.13385743,0.7061035,-0.70204103,326,"2022-12-26T15:38:42.855Z"
55,0.054780275,0.7239624,-0.6886719,324,"2022-12-26T15:39:43.417Z"
56,0.21241944,0.56930906,-0.8360718,324,"2022-12-26T15:40:43.980Z"
62,0.10489746,0.68917966,-0.71851075,323,"2022-12-26T15:41:44.542Z"
60,0.099052735,0.80913085,-0.58872557,321,"2022-12-26T15:42:45.104Z"
65,0.16704102,0.6971558,-0.703501,321,"2022-12-26T15:43:45.666Z"
78,0.16887452,0.89588624,-0.42080078,321,"2022-12-26T15:44:46.229Z"
68,0.29371825,0.7149365,-0.6126245,321,"2022-12-26T15:45:46.791Z"
72,0.24570313,0.7529248,-0.48592773,321,"2022-12-26T15:46:47.353Z"
64,0.3383203,0.9192676,-0.2339746,320,"2022-12-26T15:47:47.915Z"
65,0.05927002,0.42619872,-0.89490235,319,"2022-12-26T15:48:48.477Z"
75,0.1531128,0.9519458,-0.24572998,320,"2022-12-26T15:49:49.040Z"
79,0.30956542,0.87819093,0.051936034,320,"2022-12-26T15:50:49.602Z"
88,0.00022949219,0.84497803,-0.53745115,320,"2022-12-26T15:51:50.164Z"
74,-0.4131006,0.44273195,-0.7755078,318,"2022-12-26T15:52:50.726Z"
81,-0.77182126,0.5837085,0.26958495,316,"2022-12-26T15:53:51.288Z"
59,0.23590332,0.68016356,-0.70892334,317,"2022-12-26T15:54:51.851Z"
76,0.3405884,0.9278369,-0.14348876,315,"2022-12-26T15:55:52.413Z"
71,0.015073243,0.5220508,-0.87946534,314,"2022-12-26T15:56:52.975Z"
57,-0.042819824,0.4862964,-0.8804419,313,"2022-12-26T15:57:53.522Z"
68,0.20294678,0.567146,-0.7577124,312,"2022-12-26T15:58:54.085Z"
67,0.10479004,0.49917236,-0.88471925,310,"2022-12-26T15:59:54.647Z"
51,-0.935376,0.27503663,0.095671386,311,"2022-12-26T16:00:55.209Z"
63,-0.94428223,0.25788575,0.07945557,311,"2022-12-26T16:01:55.756Z"
56,-0.94131833,0.26899415,0.06796387,311,"2022-12-26T16:02:56.319Z"
61,-0.71386474,0.5443677,0.36994386,309,"2022-12-26T16:03:56.881Z"
49,-0.8271582,0.5520044,0.19179444,306,"2022-12-26T16:04:57.443Z"
90,-0.9369751,0.26958984,0.11193848,307,"2022-12-26T16:05:57.990Z"
100,0.43448243,0.88779294,-0.09891114,306,"2022-12-26T16:06:58.552Z"
125,-0.86389405,0.4359375,0.13511719,303,"2022-12-26T16:07:59.115Z"
87,-0.05071045,0.8524829,-0.06672607,300,"2022-12-26T16:08:59.677Z"
83,-0.7311255,0.6789014,-0.03517822,299,"2022-12-26T16:10:00.239Z"
82,0.30959472,0.76184815,-0.6266016,299,"2022-12-26T16:11:00.802Z"
81,0.25763428,0.6918604,-0.6758008,300,"2022-12-26T16:12:01.364Z"
43,0.059545897,0.93436277,-0.35146484,300,"2022-12-26T16:13:01.926Z"
49,0.6929321,0.6710425,-0.044008788,299,"2022-12-26T16:14:02.488Z"
48,0.542959,0.2825415,0.76635987,300,"2022-12-26T16:15:03.050Z"
64,0.6398584,0.39529786,0.6526294,297,"2022-12-26T16:16:03.613Z"
56,-0.21746337,0.89912355,0.3424951,295,"2022-12-26T16:17:04.160Z"
56,0.44483888,0.8393335,0.31017578,298,"2022-12-26T16:18:04.722Z"
59,0.8369751,0.18549804,0.51878417,297,"2022-12-26T16:19:05.284Z"
62,0.4209253,0.604353,0.6634399,297,"2022-12-26T16:20:05.847Z"
66,0.38240233,0.46641845,0.7934936,295,"2022-12-26T16:21:06.409Z"
66,0.17850585,0.73190916,0.6366577,292,"2022-12-26T16:22:06.971Z"
71,0.21887207,0.8085962,0.5359766,286,"2022-12-26T16:23:07.533Z"
60,0.765874,0.044626463,0.6627759,287,"2022-12-26T16:24:08.095Z"
57,0.28413332,0.90545166,0.3060376,289,"2022-12-26T16:25:08.658Z"
60,0.50867677,0.7309497,0.4360327,291,"2022-12-26T16:26:09.220Z"
62,0.41543457,0.881687,0.27164552,292,"2022-12-26T16:27:09.782Z"
55,1.0057617,0.13889892,0.12585694,293,"2022-12-26T16:28:10.344Z"
60,0.79149413,0.3234546,0.506748,294,"2022-12-26T16:29:10.907Z"
58,0.14966309,0.9094702,-0.38864502,296,"2022-12-26T16:30:11.469Z"
56,0.15242676,0.71204835,0.6199707,296,"2022-12-26T16:31:12.031Z"
63,0.8749731,0.38011962,0.2214746,298,"2022-12-26T16:32:12.593Z"
52,0.5280664,0.61226565,-0.60831296,301,"2022-12-26T16:33:13.156Z"
64,0.5037085,0.6400488,0.17115234,299,"2022-12-26T16:34:13.718Z"
65,-0.0966333,0.5387134,0.8199829,298,"2022-12-26T16:35:14.280Z"
44,-0.0695752,0.542229,0.8200049,298,"2022-12-26T16:36:14.842Z"
50,0.008544922,0.9175513,0.37451172,297,"2022-12-26T16:37:15.405Z"
51,-0.052800294,0.63361084,0.75441164,297,"2022-12-26T16:38:15.967Z"
49,0.06781494,0.65308106,0.7386206,296,"2022-12-26T16:39:16.529Z"
55,-0.12826416,0.5346265,0.8185645,295,"2022-12-26T16:40:17.091Z"
65,-0.0018798828,0.612334,0.77036864,295,"2022-12-26T16:41:17.653Z"
51,-0.071608886,0.5576172,0.8097876,296,"2022-12-26T16:42:18.216Z"
66,0.20202148,0.8354004,0.5018115,297,"2022-12-26T16:43:18.778Z"
48,0.13710694,0.6596851,0.7267236,296,"2022-12-26T16:44:19.340Z"
54,0.045805663,0.5528711,0.8188818,296,"2022-12-26T16:45:19.902Z"
49,0.041940916,0.5847046,0.79593015,295,"2022-12-26T16:46:20.465Z"
52,0.072146,0.43437254,0.8893726,294,"2022-12-26T16:47:21.027Z"
48,0.06836914,0.57108396,0.8058594,294,"2022-12-26T16:48:21.589Z"
47,0.025476074,0.6059546,0.77837646,294,"2022-12-26T16:49:22.151Z"
49,0.027241211,0.5897583,0.7907886,293,"2022-12-26T16:50:22.713Z"
47,0.02609131,0.57447755,0.80159914,294,"2022-12-26T16:51:23.276Z"
53,0.017158203,0.5956201,0.7888745,294,"2022-12-26T16:52:23.838Z"
53,0.009882812,0.625625,0.76147217,292,"2022-12-26T16:53:24.400Z"
56,0.038710937,0.62645507,0.76337403,291,"2022-12-26T16:54:24.962Z"
51,-0.0028222657,0.6030884,0.7858301,289,"2022-12-26T16:55:25.525Z"
54,0.010246582,0.6652783,0.7303833,289,"2022-12-26T16:56:26.087Z"
47,0.08525391,0.6566431,0.7359229,288,"2022-12-26T16:57:26.649Z"
52,-0.006184082,0.6364502,0.75648683,288,"2022-12-26T16:58:27.211Z"
50,-0.01863037,0.65222657,0.7423389,288,"2022-12-26T16:59:27.774Z"
51,-0.01282959,0.6623999,0.73252684,289,"2022-12-26T17:00:28.336Z"
48,-0.009174805,0.60788083,0.7792236,288,"2022-12-26T17:01:28.898Z"
59,0.019790038,0.5467895,0.82219726,286,"2022-12-26T17:02:29.460Z"
61,0.21214844,0.9385669,-0.28466064,287,"2022-12-26T17:03:30.022Z"
49,0.12714599,0.63807374,-0.7677002,287,"2022-12-26T17:04:30.585Z"
51,0.0037963868,0.6296631,-0.78306884,286,"2022-12-26T17:05:31.147Z"
72,-0.84093016,0.5442041,0.18975097,286,"2022-12-26T17:06:31.709Z"
82,0.13712159,0.6271728,-0.77671874,287,"2022-12-26T17:07:32.271Z"
83,0.26173097,0.58686525,-0.7791577,287,"2022-12-26T17:08:32.834Z"
88,-0.41810304,0.88836914,0.018933106,285,"2022-12-26T17:09:33.396Z"
85,-0.12959962,0.9680347,0.24824707,283,"2022-12-26T17:10:33.958Z"
94,0.13862793,0.85713136,0.4705835,285,"2022-12-26T17:11:34.521Z"
68,-0.2788501,0.92283446,-0.30071044,287,"2022-12-26T17:12:35.083Z"
63,-0.10937988,0.9831592,0.055070803,288,"2022-12-26T17:13:35.645Z"
59,0.18278809,0.8365283,0.44988036,288,"2022-12-26T17:14:36.207Z"
63,-0.0574292,0.9888281,0.085356444,288,"2022-12-26T17:15:36.769Z"
57,-0.29836425,0.8327637,0.43214598,290,"2022-12-26T17:16:37.332Z"
55,-0.07508301,0.89927244,0.40779054,291,"2022-12-26T17:17:37.894Z"
63,-0.41319823,0.8972266,-0.005209961,291,"2022-12-26T17:18:38.456Z"
60,0.12586914,0.86176026,-0.49614745,293,"2022-12-26T17:19:39.018Z"
73,-0.15185791,0.7695239,-0.6770361,294,"2022-12-26T17:20:39.581Z"
76,-0.0015844726,0.87418455,-0.50365233,294,"2022-12-26T17:21:40.143Z"
76,-0.18075195,0.90048826,-0.38327393,292,"2022-12-26T17:22:40.705Z"
75,-0.09083496,0.9307373,0.034936525,289,"2022-12-26T17:23:41.267Z"
72,0.30426514,0.90055174,-0.2239087,290,"2022-12-26T17:24:41.829Z"
75,-0.8622681,0.4125708,-0.25795165,287,"2022-12-26T17:25:42.392Z"
75,0.17799072,0.7309619,-0.6620874,287,"2022-12-26T17:26:42.954Z"
62,0.7720703,0.25463134,0.54715085,287,"2022-12-26T17:27:43.516Z"
77,-0.26932862,0.70776856,-0.5492334,288,"2022-12-26T17:28:44.078Z"
70,0.012929687,0.85167724,0.50770265,288,"2022-12-26T17:29:44.641Z"
77,-0.93375,0.27016112,0.104506835,287,"2022-12-26T17:30:45.203Z"
72,-0.29108155,0.6856494,-0.61280274,286,"2022-12-26T17:31:45.765Z"
76,0.1849707,0.6910498,-0.70931643,284,"2022-12-26T17:32:46.327Z"
84,-0.7358594,0.3530957,-0.5783569,282,"2022-12-26T17:33:46.889Z"
76,-0.83543944,0.45407715,-0.12733887,282,"2022-12-26T17:34:47.452Z"
72,-0.87805665,0.39415038,0.27222168,282,"2022-12-26T17:35:48.014Z"
70,-0.04819824,0.7041724,-0.7147241,282,"2022-12-26T17:36:48.576Z"
50,-0.8116772,0.5124853,0.18823487,283,"2022-12-26T17:37:49.138Z"
55,-0.9549292,0.21187012,0.016931152,277,"2022-12-26T17:38:49.701Z"
49,-0.44062987,0.8706396,-0.1688623,282,"2022-12-26T17:39:50.263Z"
70,0.6811987,0.2992407,0.6807617,279,"2022-12-26T17:40:50.825Z"
68,-0.8844995,0.4203833,0.06044922,281,"2022-12-26T17:41:51.387Z"
53,-0.869563,0.46312743,0.061828613,281,"2022-12-26T17:42:51.950Z"
62,-0.88856936,0.41734132,-0.023806153,281,"2022-12-26T17:43:52.512Z"
53,-0.95162845,0.24930176,0.052077636,284,"2022-12-26T17:44:53.074Z"
51,-0.9426367,0.22183594,0.15432861,282,"2022-12-26T17:45:53.636Z"
49,-0.9475586,0.23532227,0.09205811,281,"2022-12-26T17:46:54.199Z"
60,-0.9490771,0.2244751,0.10871338,281,"2022-12-26T17:47:54.761Z"
49,-0.74268067,0.6317041,0.09791016,280,"2022-12-26T17:48:55.323Z"
57,-0.8862744,0.39045897,0.12497803,278,"2022-12-26T17:49:55.885Z"
77,-0.6245752,0.627959,-0.43057373,276,"2022-12-26T17:50:56.448Z"
79,-0.5612085,0.7412036,-0.058703613,274,"2022-12-26T17:51:57.010Z"
82,-0.93392336,0.24223389,0.06779297,274,"2022-12-26T17:52:57.572Z"
91,-0.6071826,0.7036572,0.31588867,275,"2022-12-26T17:53:58.134Z"
79,-0.13727295,0.7098706,0.6289917,278,"2022-12-26T17:54:58.697Z"
58,0.019106446,0.9900317,-0.022248534,280,"2022-12-26T17:55:59.259Z"
53,0.38216797,0.86558837,-0.33889404,283,"2022-12-26T17:56:59.821Z"
67,0.4018115,0.9168408,-0.15266846,283,"2022-12-26T17:58:00.383Z"
55,-0.1348999,0.68229,-0.74669677,282,"2022-12-26T17:59:00.946Z"
56,0.46350098,0.6785864,-0.57958984,283,"2022-12-26T18:00:01.508Z"
54,0.49538085,0.8650903,-0.12295899,284,"2022-12-26T18:01:02.070Z"
47,0.49428955,0.8647754,-0.14335205,287,"2022-12-26T18:02:02.632Z"
64,0.47106445,0.5926465,-0.6707935,291,"2022-12-26T18:03:03.194Z"
49,0.21098633,0.27701172,-0.9570874,296,"2022-12-26T18:04:03.757Z"
66,0.69584227,0.70826906,-0.114311524,300,"2022-12-26T18:05:04.319Z"
66,0.50356936,0.8488574,-0.18578368,304,"2022-12-26T18:06:04.881Z"
55,0.31621337,0.932522,-0.1725,305,"2022-12-26T18:07:05.443Z"
52,0.23538575,0.95388913,-0.20200928,308,"2022-12-26T18:08:06.006Z"
55,0.3870581,0.91159177,0.058688965,309,"2022-12-26T18:09:06.568Z"
56,0.40810058,0.8233765,-0.42386964,312,"2022-12-26T18:10:07.130Z"
52,0.26803467,0.9272095,0.24131592,311,"2022-12-26T18:11:07.692Z"
59,0.5694507,0.7969458,-0.2306836,317,"2022-12-26T18:12:08.254Z"
60,0.59844726,0.707605,-0.27281007,319,"2022-12-26T18:13:08.817Z"
76,0.35385254,0.68751466,-0.6466162,319,"2022-12-26T18:14:09.379Z"
44,0.40749267,0.61333007,-0.6952637,318,"2022-12-26T18:15:09.941Z"
52,0.6915967,0.3613623,0.6336792,318,"2022-12-26T18:16:10.503Z"
65,0.12962647,0.8996167,-0.3328784,319,"2022-12-26T18:17:11.065Z"
64,-0.3041748,0.7804541,-0.39055663,320,"2022-12-26T18:18:11.628Z"
72,0.34822264,0.91342527,-0.2362085,316,"2022-12-26T18:19:12.190Z"
82,0.08529053,0.8206738,-0.5760864,315,"2022-12-26T18:20:12.752Z"
104,0.058813475,0.92615724,-0.38470703,314,"2022-12-26T18:21:13.314Z"
110,-0.8288354,0.299021,-0.39236084,311,"2022-12-26T18:22:13.876Z"
108,-0.8223071,0.5141577,0.13758545,312,"2022-12-26T18:23:14.439Z"
75,-0.8612793,0.47909912,-0.06609375,313,"2022-12-26T18:24:15.001Z"
47,-0.90084475,0.33613038,0.1875,313,"2022-12-26T18:25:15.563Z"
60,-0.86338866,0.46336424,-0.08074707,311,"2022-12-26T18:26:16.125Z"
51,-0.9232788,0.31056884,0.09754883,306,"2022-12-26T18:27:16.688Z"
77,-0.92203856,0.30338135,0.12667236,306,"2022-12-26T18:28:17.250Z"
56,-0.93070555,0.30086914,0.104475096,302,"2022-12-26T18:29:17.812Z"
74,-0.90105957,0.39449707,0.20910645,299,"2022-12-26T18:30:18.374Z"
81,0.016140137,0.75741696,-0.70562255,296,"2022-12-26T18:31:18.937Z"
102,-0.81049806,0.5030176,0.15107177,293,"2022-12-26T18:32:19.499Z"
97,-0.87586427,0.32119384,0.28629884,289,"2022-12-26T18:33:20.061Z"
81,-0.80768067,0.5304956,-0.0119750975,289,"2022-12-26T18:34:20.623Z"
76,-0.87257814,0.4414575,0.19515869,286,"2022-12-26T18:35:21.185Z"
85,-0.89894533,0.41524902,0.2098755,280,"2022-12-26T18:36:21.733Z"
71,-0.92203856,0.2716626,0.18551758,278,"2022-12-26T18:37:22.295Z"
90,-0.8771875,0.37711915,0.21480225,278,"2022-12-26T18:38:22.857Z"
73,-0.91197264,0.3274707,0.25572997,275,"2022-12-26T18:39:23.419Z"
84,-0.8432983,0.43460694,0.16672851,272,"2022-12-26T18:40:23.982Z"
81,-0.91996825,0.04515625,0.3331836,269,"2022-12-26T18:41:24.544Z"
86,-0.94609374,0.1389502,0.21353027,265,"2022-12-26T18:42:25.106Z"
82,-0.9937207,-0.1042749,0.172063,263,"2022-12-26T18:43:25.668Z"
89,0.68524414,-0.73616457,-0.04135742,264,"2022-12-26T18:44:26.231Z"
109,-0.7240845,0.7030054,0.0039331056,266,"2022-12-26T18:45:26.793Z"
84,-0.89823484,0.38982177,0.10439697,265,"2022-12-26T18:46:27.355Z"
82,-0.32813233,0.810166,-0.47185546,266,"2022-12-26T18:47:27.917Z"
89,-0.44027343,0.6221216,0.6198706,265,"2022-12-26T18:48:28.480Z"
91,0.4454126,0.8472607,-0.34445557,266,"2022-12-26T18:49:29.042Z"
97,-0.68301755,0.5215771,0.35178468,271,"2022-12-26T18:50:29.604Z"
95,-0.7699951,0.49678466,0.24815674,274,"2022-12-26T18:51:30.167Z"
66,-0.7637964,0.65493655,-0.17094971,279,"2022-12-26T18:52:30.729Z"
70,-0.7898755,0.4304126,0.31098634,282,"2022-12-26T18:53:31.291Z"
64,-0.12986083,0.9329468,-0.2029956,285,"2022-12-26T18:54:31.853Z"
71,-0.68138915,0.70962644,-0.1602002,288,"2022-12-26T18:55:32.415Z"
73,0.26054442,0.79583985,-0.5506885,288,"2022-12-26T18:56:32.978Z"
77,-0.13110596,0.5252222,0.75383544,288,"2022-12-26T18:57:33.540Z"
76,0.16746826,0.9372485,-0.24690919,289,"2022-12-26T18:58:34.102Z"
70,-0.12185791,0.828103,-0.50808597,289,"2022-12-26T18:59:34.664Z"
62,-0.60963136,0.72823244,-0.051811524,289,"2022-12-26T19:00:35.227Z"
66,-0.17469971,0.88198733,0.39093262,289,"2022-12-26T19:01:35.789Z"
66,0.60258543,-0.120073244,0.695188,292,"2022-12-26T19:02:36.351Z"
73,0.17949219,0.6951733,-0.5462207,295,"2022-12-26T19:03:36.913Z"
68,-0.57336426,0.7744214,-0.16849366,298,"2022-12-26T19:04:37.476Z"
73,-0.9665991,0.08414063,0.17345215,300,"2022-12-26T19:05:38.038Z"
64,-0.47020996,0.2951294,-0.8250244,296,"2022-12-26T19:06:38.600Z"
72,-0.44766358,0.72941893,0.40336183,298,"2022-12-26T19:07:39.162Z"
75,-0.19683594,0.8475366,0.329458,298,"2022-12-26T19:08:39.724Z"
80,0.84133303,0.24534668,0.43466553,299,"2022-12-26T19:09:40.287Z"
84,-0.17594726,0.8491211,0.49349853,301,"2022-12-26T19:10:40.849Z"
67,-0.88250244,0.42265138,0.12844726,300,"2022-12-26T19:11:41.411Z"
82,0.09876465,0.75572264,-0.736106,299,"2022-12-26T19:12:41.973Z"
76,0.118303224,0.6953223,-0.70184326,301,"2022-12-26T19:13:42.535Z"
77,-0.9994238,0.47235596,0.117922366,300,"2022-12-26T19:14:43.098Z"
76,0.342688,0.65561277,-0.6993604,299,"2022-12-26T19:15:43.660Z"
76,0.13571289,0.54976076,-0.8124731,299,"2022-12-26T19:16:44.222Z"
77,0.040947266,0.6827002,0.02439453,297,"2022-12-26T19:17:44.784Z"
65,0.39877442,0.52098143,0.7179907,296,"2022-12-26T19:18:45.347Z"
72,-0.34603027,0.6915698,-0.3977954,296,"2022-12-26T19:19:45.909Z"
60,-0.05553467,0.37320068,-0.9442651,298,"2022-12-26T19:20:46.471Z"
71,0.5618603,0.45217285,0.56755614,295,"2022-12-26T19:21:47.033Z"
74,-0.13631836,0.96539795,0.0077221678,296,"2022-12-26T19:22:47.595Z"
67,-0.35824218,0.88752687,-0.040251464,295,"2022-12-26T19:23:48.158Z"
65,0.13030273,0.9308325,-0.28691894,293,"2022-12-26T19:24:48.720Z"
59,0.07180664,0.61053467,-0.7956665,293,"2022-12-26T19:25:49.282Z"
50,0.22541016,0.80167234,-0.55918944,290,"2022-12-26T19:26:49.844Z"
53,0.0028125,0.88643557,0.1780835,289,"2022-12-26T19:27:50.407Z"
60,-0.004013672,0.25385988,-0.980918,291,"2022-12-26T19:28:50.969Z"
64,-0.47519776,0.7183691,0.010566406,290,"2022-12-26T19:29:51.531Z"
62,-0.5911963,0.79474366,0.20032714,291,"2022-12-26T19:30:52.093Z"
64,-0.56983155,0.5937915,0.5733179,291,"2022-12-26T19:31:52.656Z"
57,0.106601566,0.8260205,-0.54656494,292,"2022-12-26T19:32:53.218Z"
63,0.2490332,0.52108157,-0.82278806,291,"2022-12-26T19:33:53.780Z"
52,0.84040284,0.20084961,0.5360742,291,"2022-12-26T19:34:54.342Z"
73,-0.3355078,0.6258081,0.6843872,291,"2022-12-26T19:35:54.905Z"
52,-0.18254639,0.39161864,-0.9086084,290,"2022-12-26T19:36:55.467Z"
58,-0.38223878,0.5891528,0.69842285,287,"2022-12-26T19:37:56.029Z"
48,-0.0028735353,0.81072265,-0.58776367,290,"2022-12-26T19:38:56.591Z"
53,0.10604004,0.71462405,-0.73874265,291,"2022-12-26T19:39:57.154Z"
61,0.29026124,0.6593701,-0.70184815,292,"2022-12-26T19:40:57.716Z"
43,-0.05047119,0.9131641,-0.40025148,293,"2022-12-26T19:41:58.278Z"
80,-0.5585596,0.56334716,0.35865965,294,"2022-12-26T19:42:58.840Z"
72,-0.11966797,0.9281958,0.27830565,294,"2022-12-26T19:43:59.402Z"
90,-0.17737061,0.76526123,-0.48829347,294,"2022-12-26T19:44:59.965Z"
78,0.07897461,0.8832275,-0.21629883,296,"2022-12-26T19:46:00.527Z"
71,-0.5456079,0.52684814,0.5496582,298,"2022-12-26T19:47:01.089Z"
87,-0.0799585,0.84582275,0.4952124,294,"2022-12-26T19:48:01.651Z"
89,-0.15663819,0.6161865,0.67177737,292,"2022-12-26T19:49:02.214Z"
80,0.32871583,0.71635497,0.66722167,292,"2022-12-26T19:50:02.776Z"
86,0.29823244,0.6408496,0.6284692,290,"2022-12-26T19:51:03.338Z"
91,0.32068604,0.7341333,0.6089038,288,"2022-12-26T19:52:03.900Z"
118,-0.91495115,0.12193604,0.07362549,281,"2022-12-26T19:53:04.462Z"
134,0.60996825,-0.017231446,0.6133789,283,"2022-12-26T19:54:05.025Z"
130,-0.9446899,0.3089087,-0.05576904,286,"2022-12-26T19:55:05.587Z"
124,-0.69947267,0.686748,-0.12585694,287,"2022-12-26T19:56:06.149Z"
114,-0.16312744,0.64192873,-0.6987476,288,"2022-12-26T19:57:06.711Z"
100,0.39598143,0.5552246,-0.7473706,291,"2022-12-26T19:58:07.274Z"
106,-0.35750487,0.5336206,-0.7932031,291,"2022-12-26T19:59:07.836Z"
115,-0.19707763,0.59485596,-0.78773195,291,"2022-12-26T20:00:08.398Z"
107,0.16022462,0.77911377,-0.60995364,288,"2022-12-26T20:01:08.960Z"
99,-0.4162671,0.17121337,0.8704077,287,"2022-12-26T20:02:09.523Z"
85,-0.8246533,0.5006177,0.13943848,285,"2022-12-26T20:03:10.085Z"
96,-0.12843262,0.7597412,0.6134985,285,"2022-12-26T20:04:10.647Z"
91,-0.21028809,0.9426465,-0.2509253,287,"2022-12-26T20:05:11.209Z"
92,-0.3039209,0.70416015,0.6125854,288,"2022-12-26T20:06:11.771Z"
54,-0.021940919,0.9389844,0.13145752,288,"2022-12-26T20:07:12.334Z"
64,-0.60388184,0.77095705,-0.14980225,290,"2022-12-26T20:08:12.896Z"
60,-0.91395754,0.32001954,-0.068989255,292,"2022-12-26T20:09:13.458Z"
70,-0.50415283,0.3979126,-0.75975096,292,"2022-12-26T20:10:14.021Z"
84,-0.2544116,0.93789065,-0.26386476,294,"2022-12-26T20:11:14.583Z"
78,0.032441407,0.82870847,0.550874,293,"2022-12-26T20:12:15.145Z"
74,-0.11305664,0.8537451,0.04594238,290,"2022-12-26T20:13:15.707Z"
73,-0.62815917,0.6383398,0.1988086,291,"2022-12-26T20:14:16.270Z"
66,0.39358398,0.80433106,0.4314331,291,"2022-12-26T20:15:16.832Z"
67,0.42101073,0.89993894,0.11443604,290,"2022-12-26T20:16:17.394Z"
53,0.8768774,0.31702638,0.3984668,292,"2022-12-26T20:17:17.956Z"
57,0.8533667,0.4785083,0.19818604,294,"2022-12-26T20:18:18.518Z"
57,0.4676367,0.19699219,0.845979,296,"2022-12-26T20:19:19.081Z"
50,0.8288501,0.57848144,0.061276857,301,"2022-12-26T20:20:19.643Z"
67,-0.2560376,0.7945874,-0.306709,301,"2022-12-26T20:21:20.205Z"
73,0.35178956,0.38094726,0.84830564,300,"2022-12-26T20:22:20.767Z"
67,0.65111816,0.63556397,0.2521875,301,"2022-12-26T20:23:21.330Z"
55,0.044274904,0.9907959,0.06156494,302,"2022-12-26T20:24:21.892Z"
70,0.35369384,0.5516772,0.7425488,303,"2022-12-26T20:25:22.454Z"
62,0.13535644,0.6601636,0.7268311,303,"2022-12-26T20:26:23.016Z"
56,0.74553466,0.36875734,0.4327246,303,"2022-12-26T20:27:23.578Z"
54,0.53288573,0.721648,-0.3824878,302,"2022-12-26T20:28:24.141Z"
56,0.27436525,0.4658374,0.83566165,301,"2022-12-26T20:29:24.703Z"
69,0.9897241,0.059785157,0.22438477,300,"2022-12-26T20:30:25.265Z"
77,-0.61564696,0.62982666,-0.45359132,300,"2022-12-26T20:31:25.827Z"
54,0.9374585,-0.41303223,0.08953125,301,"2022-12-26T20:32:26.389Z"
43,1.0068653,-0.1752246,0.05326172,299,"2022-12-26T20:33:26.952Z"
47,0.92250246,-0.37166747,0.22200684,300,"2022-12-26T20:34:27.514Z"
55,1.0105004,0.08618164,-0.113654785,302,"2022-12-26T20:35:28.076Z"
56,1.0138233,0.027521973,-0.046791993,301,"2022-12-26T20:36:28.638Z"
55,0.31764403,0.65393066,-0.700813,301,"2022-12-26T20:37:29.201Z"
44,0.8794311,-0.48800537,0.1988501,302,"2022-12-26T20:38:29.763Z"
48,0.7132544,0.69636476,-0.109282225,302,"2022-12-26T20:39:30.325Z"
55,-0.23785156,0.7888159,0.53711426,305,"2022-12-26T20:40:30.887Z"
78,0.87085694,0.3098169,0.29836914,309,"2022-12-26T20:41:31.449Z"
50,-0.49417236,0.6253247,0.5676245,310,"2022-12-26T20:42:32.012Z"
64,-0.07880859,0.8978174,0.40522462,310,"2022-12-26T20:43:32.574Z"
50,-0.09940918,0.98464113,-0.085925296,312,"2022-12-26T20:44:33.136Z"
55,-0.45156005,0.7495459,0.44404054,313,"2022-12-26T20:45:33.698Z"
69,-0.1587207,0.86961424,-0.45765626,315,"2022-12-26T20:46:34.260Z"
59,0.19312988,0.92443115,-0.33516356,315,"2022-12-26T20:47:34.823Z"
66,-0.1022583,0.74308103,-0.6713281,313,"2022-12-26T20:48:35.385Z"
61,-0.87809324,0.39613768,0.18157226,312,"2022-12-26T20:49:35.947Z"
77,0.07073242,0.89746094,-0.45425048,311,"2022-12-26T20:50:36.509Z"
57,0.28552246,0.82986087,-0.47314453,310,"2022-12-26T20:51:37.072Z"
47,0.76773924,0.5771094,0.31132326,308,"2022-12-26T20:52:37.634Z"
51,0.3872461,0.83653075,0.14773437,307,"2022-12-26T20:53:38.196Z"
49,0.4962207,0.6834937,-0.55299807,307,"2022-12-26T20:54:38.758Z"
53,0.49467286,0.6587036,-0.58322996,306,"2022-12-26T20:55:39.321Z"
45,0.43482667,0.6235547,-0.6681372,304,"2022-12-26T20:56:39.883Z"
66,-0.77841794,0.5781079,-0.10947022,300,"2022-12-26T20:57:40.445Z"
63,-0.8809302,0.36497316,-0.27674317,301,"2022-12-26T20:58:41.007Z"
69,-0.58749026,0.73001707,0.24460693,300,"2022-12-26T20:59:41.569Z"
71,-0.8695654,0.33874756,0.07982666,300,"2022-12-26T21:00:42.132Z"
68,-0.7745459,0.4476782,0.111535646,300,"2022-12-26T21:01:42.694Z"
70,-0.17410645,0.52048826,-0.8587353,299,"2022-12-26T21:02:43.256Z"
74,-0.5702368,0.7824805,0.11027832,299,"2022-12-26T21:03:43.818Z"
72,-0.14985107,0.5819092,-0.81875974,299,"2022-12-26T21:04:44.380Z"
62,-0.73791504,0.6304687,0.13947509,300,"2022-12-26T21:05:44.943Z"
67,-0.07358643,0.9108521,0.4490869,298,"2022-12-26T21:06:45.505Z"
62,0.77988034,0.5740063,0.27502686,298,"2022-12-26T21:07:46.067Z"
74,-0.74037844,0.63469726,0.26951417,298,"2022-12-26T21:08:46.629Z"
80,0.3056177,0.87314206,-0.36918944,297,"2022-12-26T21:09:47.192Z"
69,0.2113794,0.80985594,-0.5566382,294,"2022-12-26T21:10:47.754Z"
65,-0.116230465,0.86080813,0.30341554,294,"2022-12-26T21:11:48.316Z"
51,0.21499267,0.9481616,-0.1855542,295,"2022-12-26T21:12:48.878Z"
55,0.6059082,0.74429685,0.10722168,294,"2022-12-26T21:13:49.440Z"
52,0.24332519,0.92346925,-0.30975097,294,"2022-12-26T21:14:50.003Z"
50,0.47096434,0.8522998,-0.25196046,296,"2022-12-26T21:15:50.565Z"
53,0.40720215,0.8581665,-0.3373999,299,"2022-12-26T21:16:51.127Z"
67,-0.04237793,0.9547046,-0.10973144,300,"2022-12-26T21:17:51.689Z"
71,-0.19960205,0.9600977,-0.16154297,303,"2022-12-26T21:18:52.252Z"
74,-0.5307715,0.6396094,-0.32775146,302,"2022-12-26T21:19:52.814Z"
74,-0.099916995,0.6146216,0.653501,302,"2022-12-26T21:20:53.376Z"
83,-0.1764331,0.8962158,0.1739624,302,"2022-12-26T21:21:53.938Z"
84,-0.024736328,0.9509424,0.27208006,301,"2022-12-26T21:22:54.500Z"
74,-0.1858081,0.95936036,-0.087424316,301,"2022-12-26T21:23:55.063Z"
50,0.40908203,0.6877002,-0.6152881,302,"2022-12-26T21:24:55.625Z"
45,0.44461426,0.53105956,-0.7350684,301,"2022-12-26T21:25:56.187Z"
42,0.4363281,0.6191748,-0.669375,299,"2022-12-26T21:26:56.750Z"
44,0.61159915,0.5152173,-0.62300783,300,"2022-12-26T21:27:57.312Z"
46,0.7316919,0.52468264,-0.46649903,305,"2022-12-26T21:28:57.874Z"
43,0.8658496,0.38104248,-0.37268066,307,"2022-12-26T21:29:58.436Z"
41,0.789563,0.50933594,-0.38325197,310,"2022-12-26T21:30:58.998Z"
47,0.770293,0.54800296,-0.36526367,311,"2022-12-26T21:31:59.561Z"
38,0.29129884,0.7836499,-0.5597534,311,"2022-12-26T21:33:00.123Z"
45,0.31043947,0.6367481,-0.71907717,314,"2022-12-26T21:34:00.685Z"
42,0.31221434,0.7725122,-0.5654834,317,"2022-12-26T21:35:01.247Z"
43,0.3269043,0.7406616,-0.59926516,318,"2022-12-26T21:36:01.809Z"
57,0.37431884,0.8412598,-0.40375978,320,"2022-12-26T21:37:02.372Z"
56,0.015400391,0.73440915,-0.6767798,318,"2022-12-26T21:38:02.934Z"
69,0.10278565,0.89904785,-0.32843018,315,"2022-12-26T21:39:03.496Z"
70,-0.6944458,0.50880617,0.58371824,311,"2022-12-26T21:40:04.058Z"
48,0.430354,0.6298462,-0.66337156,312,"2022-12-26T21:41:04.620Z"
47,-0.41859618,0.84337646,0.0007836914,310,"2022-12-26T21:42:05.183Z"
54,-0.14143066,0.98530275,0.043205567,308,"2022-12-26T21:43:05.745Z"
53,0.08564697,0.8784717,-0.4771509,309,"2022-12-26T21:44:06.307Z"
68,-0.71249753,0.5976001,0.49787354,306,"2022-12-26T21:45:06.869Z"
70,0.26804933,0.5888916,0.7259546,307,"2022-12-26T21:46:07.432Z"
70,0.22050782,0.84231687,-0.4546924,303,"2022-12-26T21:47:07.994Z"
79,-0.220625,0.9531909,0.07425293,305,"2022-12-26T21:48:08.556Z"
68,0.029111328,0.53941405,0.8074194,307,"2022-12-26T21:49:09.118Z"
66,-0.21946533,0.72088134,0.63483155,303,"2022-12-26T21:50:09.680Z"
69,-0.14837158,0.79990476,0.29994628,303,"2022-12-26T21:51:10.243Z"
67,-0.82942384,0.5818823,0.088361815,304,"2022-12-26T21:52:10.805Z"
61,0.4493457,0.5442944,0.683042,303,"2022-12-26T21:53:11.367Z"
76,0.47407472,0.599209,0.6463452,304,"2022-12-26T21:54:11.929Z"
74,0.3998706,0.7341235,0.5108594,305,"2022-12-26T21:55:12.491Z"
77,-0.13549072,0.7728662,0.5917017,304,"2022-12-26T21:56:13.054Z"
71,-0.16189697,0.99214846,-0.17792237,302,"2022-12-26T21:57:13.616Z"
66,0.021940919,0.94729733,0.2906079,305,"2022-12-26T21:58:14.178Z"
79,0.2860132,0.7950049,0.39891356,304,"2022-12-26T21:59:14.740Z"
69,0.3196704,0.6965283,0.4917285,303,"2022-12-26T22:00:15.302Z"
67,0.6684936,0.54098874,0.5025293,304,"2022-12-26T22:01:15.865Z"
78,-0.9275415,0.38938722,0.10420898,304,"2022-12-26T22:02:16.427Z"
69,-0.7721899,0.5510156,0.30171874,302,"2022-12-26T22:03:16.989Z"
70,0.27690428,0.9333203,0.027456054,300,"2022-12-26T22:04:17.552Z"
70,0.7703711,0.56608397,0.2889746,301,"2022-12-26T22:05:18.114Z"
82,-0.5941333,0.66940427,0.11367431,301,"2022-12-26T22:06:18.676Z"
49,0.13436036,0.987334,0.0188916,302,"2022-12-26T22:07:19.238Z"
49,0.07056152,0.9847632,0.108127445,302,"2022-12-26T22:08:19.800Z"
47,0.054082032,0.97200686,0.19583984,304,"2022-12-26T22:09:20.363Z"
44,0.07354736,0.96205324,0.23315918,305,"2022-12-26T22:10:20.925Z"
47,0.05328613,0.9703296,0.20429687,305,"2022-12-26T22:11:21.487Z"
47,0.07351074,0.96382326,0.22869384,306,"2022-12-26T22:12:22.049Z"
43,0.13710937,0.9642236,0.203125,306,"2022-12-26T22:13:22.611Z"
45,0.09644043,0.9420435,0.30029297,307,"2022-12-26T22:14:23.174Z"
46,0.038190916,0.9098999,0.3900659,309,"2022-12-26T22:15:23.736Z"
44,-0.02279541,0.9866992,0.095495604,311,"2022-12-26T22:16:24.298Z"
49,-0.017053222,0.96777344,0.21398681,314,"2022-12-26T22:17:24.860Z"
48,-0.1184082,0.9457007,0.26343262,317,"2022-12-26T22:18:25.422Z"
54,-0.32227784,0.8824902,0.29455566,320,"2022-12-26T22:19:25.985Z"
50,0.3411792,0.5795752,0.6870044,322,"2022-12-26T22:20:26.547Z"
48,0.06823975,0.93138915,0.24819335,322,"2022-12-26T22:21:27.109Z"
50,0.24350342,0.7831152,-0.5798657,320,"2022-12-26T22:22:27.671Z"
46,0.45766112,0.8910229,-0.07229981,322,"2022-12-26T22:23:28.233Z"
48,0.15297851,0.9889136,-0.020117188,320,"2022-12-26T22:24:28.796Z"
45,0.34947264,0.6457495,-0.6904956,322,"2022-12-26T22:25:29.358Z"
42,-0.7030444,0.5486719,0.38955566,322,"2022-12-26T22:26:29.920Z"
48,-0.6325806,0.5749146,0.47463134,323,"2022-12-26T22:27:30.482Z"
52,-0.6946728,0.49637452,0.47392577,324,"2022-12-26T22:28:31.044Z"
67,-0.07847168,-0.31358886,-0.9619702,324,"2022-12-26T22:29:31.607Z"
60,-0.0017016601,-0.24916504,-0.9816797,325,"2022-12-26T22:30:32.154Z"
59,-0.010905761,-0.07741699,-1.0086817,325,"2022-12-26T22:31:32.716Z"
63,-0.01817871,-0.082197264,-1.00906,327,"2022-12-26T22:32:33.278Z"
63,0.35497802,0.72788817,-0.600437,327,"2022-12-26T22:33:33.841Z"
48,0.36864257,0.648352,-0.67874026,329,"2022-12-26T22:34:34.388Z"
72,-0.07891113,0.84878904,0.4924292,330,"2022-12-26T22:35:34.950Z"
54,-0.6975488,0.6544116,-0.23818359,330,"2022-12-26T22:36:35.512Z"
66,-0.26052734,0.4391211,0.61010987,329,"2022-12-26T22:37:36.075Z"
75,0.7188745,0.6857251,-0.10267578,327,"2022-12-26T22:38:36.637Z"
62,0.10572754,-0.99689454,-0.18535157,320,"2022-12-26T22:39:37.199Z"
43,0.08792969,-0.98160887,-0.261875,315,"2022-12-26T22:40:37.761Z"
43,0.08689209,-0.9811792,-0.26302245,311,"2022-12-26T22:41:38.323Z"
45,0.08568359,-0.9803857,-0.26736328,310,"2022-12-26T22:42:38.885Z"
44,0.08470215,-0.98013914,-0.26869628,309,"2022-12-26T22:43:39.448Z"
41,0.08501465,-0.9797876,-0.2698999,309,"2022-12-26T22:44:40.010Z"
46,0.066350095,-0.990603,-0.23194335,310,"2022-12-26T22:45:40.572Z"
40,0.16781738,-0.9626489,-0.2958618,323,"2022-12-26T22:46:41.135Z"
40,0.15033203,-0.9565967,-0.3274341,325,"2022-12-26T22:47:41.697Z"
43,0.17533202,-0.85040283,-0.5372608,327,"2022-12-26T22:48:42.259Z"
40,0.17615479,-0.8494971,-0.5386743,327,"2022-12-26T22:49:42.821Z"
38,0.17322753,-0.7479565,-0.67387205,326,"2022-12-26T22:50:43.383Z"
42,0.17269287,-0.75073487,-0.6701611,328,"2022-12-26T22:51:43.946Z"
41,0.17324218,-0.74890625,-0.6720093,329,"2022-12-26T22:52:44.508Z"
40,0.17312011,-0.74791014,-0.67276365,331,"2022-12-26T22:53:45.070Z"
39,0.1724463,-0.74770266,-0.67328614,332,"2022-12-26T22:54:45.632Z"
40,0.17183594,-0.7473999,-0.6736011,332,"2022-12-26T22:55:46.194Z"
37,0.10672852,-0.45517823,-0.9053638,332,"2022-12-26T22:56:46.742Z"
39,0.10626709,-0.45770997,-0.903208,331,"2022-12-26T22:57:47.304Z"
40,0.1063916,-0.45829347,-0.9035083,331,"2022-12-26T22:58:47.866Z"
42,0.106054686,-0.45817384,-0.90260255,331,"2022-12-26T22:59:48.428Z"
40,0.10613037,-0.457959,-0.9025,331,"2022-12-26T23:00:48.990Z"
40,0.10573486,-0.45719728,-0.9027002,332,"2022-12-26T23:01:49.553Z"
39,0.10629883,-0.45786622,-0.9024121,333,"2022-12-26T23:02:50.115Z"
39,0.1057666,-0.458396,-0.9020117,333,"2022-12-26T23:03:50.677Z"
39,0.10541992,-0.45783693,-0.90212405,333,"2022-12-26T23:04:51.239Z"
42,0.105979,-0.4583911,-0.901853,334,"2022-12-26T23:05:51.801Z"
38,0.10547852,-0.45887938,-0.9019971,334,"2022-12-26T23:06:52.364Z"
41,0.10548828,-0.45969483,-0.9013184,334,"2022-12-26T23:07:52.926Z"
39,0.105334476,-0.45898682,-0.9017041,335,"2022-12-26T23:08:53.488Z"
38,0.105285645,-0.46073,-0.9008618,335,"2022-12-26T23:09:54.050Z"
40,0.10532471,-0.45938477,-0.90119386,336,"2022-12-26T23:10:54.612Z"
39,0.10542481,-0.45959228,-0.90125245,336,"2022-12-26T23:11:55.175Z"
40,0.10546387,-0.4606543,-0.90004885,337,"2022-12-26T23:12:55.745Z"
40,0.10572266,-0.46062744,-0.90096927,337,"2022-12-26T23:13:56.311Z"
41,0.10578125,-0.46011475,-0.90110105,338,"2022-12-26T23:14:56.874Z"
45,0.105371095,-0.46065184,-0.9010083,338,"2022-12-26T23:15:57.436Z"
38,0.1057959,-0.4618042,-0.9002173,338,"2022-12-26T23:16:57.998Z"
41,0.10578613,-0.46083984,-0.9001465,338,"2022-12-26T23:17:58.560Z"
46,0.10567871,-0.46129882,-0.90048826,338,"2022-12-26T23:18:59.122Z"
44,0.10533691,-0.463938,-0.89899415,339,"2022-12-26T23:19:59.684Z"
43,0.10483887,-0.4647632,-0.8984375,339,"2022-12-26T23:21:00.247Z"
41,0.10525879,-0.46462402,-0.89816165,340,"2022-12-26T23:22:00.809Z"
45,0.105168454,-0.46517578,-0.8985791,340,"2022-12-26T23:23:01.371Z"
42,0.105534665,-0.46407714,-0.89909667,341,"2022-12-26T23:24:01.933Z"
38,0.019106446,-0.60166013,-0.81853515,343,"2022-12-26T23:25:02.495Z"
42,-0.030285645,-1.0153247,0.031101074,339,"2022-12-26T23:26:03.057Z"
54,-0.026403809,-1.0158789,0.02715332,334,"2022-12-26T23:27:03.620Z"
39,0.47824708,-0.9060669,0.00833252,342,"2022-12-26T23:28:04.182Z"
43,0.46756348,-0.9097461,-0.05831299,341,"2022-12-26T23:29:04.744Z"
48,0.46443117,-0.9099976,-0.07179687,340,"2022-12-26T23:30:05.306Z"
56,0.43026367,-0.8868188,0.27028808,338,"2022-12-26T23:31:05.868Z"
43,0.4363501,-0.8909326,0.24878663,335,"2022-12-26T23:32:06.431Z"
39,0.44168213,-0.8940454,0.22916503,335,"2022-12-26T23:33:07.005Z"
47,0.43982422,-0.8959204,0.22519043,336,"2022-12-26T23:34:07.568Z"
42,0.48919922,-0.8155664,0.3714087,337,"2022-12-26T23:35:08.130Z"
40,0.48630616,-0.822334,0.3612671,337,"2022-12-26T23:36:08.692Z"
40,0.4365454,0.588667,0.67911375,336,"2022-12-26T23:37:09.254Z"
43,0.43536377,0.58936524,0.6798071,336,"2022-12-26T23:38:09.816Z"
43,0.43340087,0.5899756,0.6804199,337,"2022-12-26T23:39:10.378Z"
45,0.43327636,0.59018064,0.68125975,339,"2022-12-26T23:40:10.941Z"
42,0.43297118,0.59013426,0.6814355,340,"2022-12-26T23:41:11.502Z"
41,0.43246338,0.5894434,0.6819727,342,"2022-12-26T23:42:12.065Z"
41,0.4325122,0.58949953,0.68218994,343,"2022-12-26T23:43:12.627Z"
46,0.43176025,0.5894434,0.68261963,344,"2022-12-26T23:44:13.189Z"
40,0.4309424,0.58997315,0.683042,345,"2022-12-26T23:45:13.752Z"
39,0.43286622,0.5708496,0.697898,346,"2022-12-26T23:46:14.314Z"
43,0.43259522,0.5722363,0.697417,347,"2022-12-26T23:47:14.876Z"
44,0.4337085,0.57089114,0.69779295,348,"2022-12-26T23:48:15.438Z"
42,0.43270752,0.5720654,0.69758546,349,"2022-12-26T23:49:16.000Z"
41,0.43261474,0.5757422,0.69508547,349,"2022-12-26T23:50:16.563Z"
42,0.4321826,0.575271,0.6941333,350,"2022-12-26T23:51:17.124Z"
46,0.43214843,0.5761572,0.69433105,351,"2022-12-26T23:52:17.699Z"
44,0.43197265,0.5760425,0.6951709,351,"2022-12-26T23:53:18.262Z"
47,0.43148437,0.57547605,0.6951563,351,"2022-12-26T23:54:18.824Z"
47,0.4323462,0.57635254,0.6952856,352,"2022-12-26T23:55:19.386Z"
53,0.43249267,0.5757788,0.69480956,352,"2022-12-26T23:56:19.948Z"
54,0.43240723,0.5760767,0.6950635,353,"2022-12-26T23:57:20.510Z"
48,0.4327954,0.57575196,0.69489014,353,"2022-12-26T23:58:21.073Z"
48,0.4325122,0.57585937,0.6950708,353,"2022-12-26T23:59:21.635Z"
45,0.43208984,0.57605225,0.69489014,354,"2022-12-27T00:00:00.087Z"
51,0.4317627,0.57678956,0.6947656,354,"2022-12-27T00:01:00.649Z"
43,0.42961913,0.5775781,0.69420165,354,"2022-12-27T00:02:01.211Z"
46,0.42832276,0.5759619,0.6969214,355,"2022-12-27T00:03:01.773Z"
52,0.42871827,0.5767334,0.69653565,355,"2022-12-27T00:04:02.335Z"
51,0.42876709,0.57621336,0.696394,355,"2022-12-27T00:05:02.898Z"
44,0.42916015,0.57796144,0.69480467,355,"2022-12-27T00:06:03.460Z"
41,0.63596433,-0.15289551,0.7731201,356,"2022-12-27T00:07:04.022Z"
36,0.6335913,-0.15364258,0.7759668,356,"2022-12-27T00:08:04.584Z"
36,0.6343921,-0.15538086,0.774873,356,"2022-12-27T00:09:05.146Z"
38,0.6319849,-0.15666015,0.77643067,356,"2022-12-27T00:10:05.708Z"
39,0.6323608,-0.15627198,0.7754468,356,"2022-12-27T00:11:06.279Z"
37,0.63260496,-0.1578955,0.7751294,356,"2022-12-27T00:12:06.845Z"
42,0.63263184,-0.15805908,0.7754175,356,"2022-12-27T00:13:07.408Z"
37,0.6322632,-0.15863526,0.77543944,356,"2022-12-27T00:14:07.970Z"
39,0.6308008,-0.15864746,0.7767212,356,"2022-12-27T00:15:08.532Z"
40,0.6312109,-0.15866211,0.7760303,356,"2022-12-27T00:16:09.094Z"
37,0.63153076,-0.15937012,0.77678955,357,"2022-12-27T00:17:09.656Z"
43,0.63133544,-0.15826416,0.77658445,357,"2022-12-27T00:18:10.219Z"
42,0.6309302,-0.15837647,0.77681154,357,"2022-12-27T00:19:10.781Z"
41,0.631416,-0.15817383,0.77693605,357,"2022-12-27T00:20:11.343Z"
40,0.6304346,-0.15870117,0.77721924,358,"2022-12-27T00:21:11.905Z"
40,0.630166,-0.15942872,0.7767383,358,"2022-12-27T00:22:12.467Z"
40,0.6307251,-0.16168702,0.7772827,358,"2022-12-27T00:23:13.029Z"
40,0.6304126,-0.16031738,0.777417,358,"2022-12-27T00:24:13.592Z"
37,0.6301953,-0.16060548,0.7765674,358,"2022-12-27T00:25:14.154Z"
42,0.62955076,-0.15992187,0.7782324,358,"2022-12-27T00:26:14.716Z"
43,-0.029477539,-0.71539307,-0.7202124,358,"2022-12-27T00:27:15.278Z"
47,-0.026088867,-0.7158472,-0.7204761,356,"2022-12-27T00:28:15.840Z"
35,-0.024335938,-0.71775633,-0.7190186,352,"2022-12-27T00:29:16.402Z"
38,0.6875757,0.15905273,0.7229541,350,"2022-12-27T00:30:16.973Z"
40,0.68419677,0.16189697,0.72522706,348,"2022-12-27T00:31:17.539Z"
45,0.6718921,0.20822997,0.72348875,346,"2022-12-27T00:32:18.102Z"
37,0.67177737,0.2097168,0.72300535,343,"2022-12-27T00:33:18.664Z"
42,0.6707202,0.21026123,0.72328615,341,"2022-12-27T00:34:19.226Z"
39,0.66735107,0.21205322,0.72579837,340,"2022-12-27T00:35:19.788Z"
38,0.66968507,0.21133056,0.7242871,338,"2022-12-27T00:36:20.350Z"
41,0.6752026,0.20694336,0.7207935,337,"2022-12-27T00:37:20.912Z"
39,0.67196536,0.20680909,0.72330564,336,"2022-12-27T00:38:21.475Z"
43,0.67298096,0.20729737,0.7232983,335,"2022-12-27T00:39:22.037Z"
37,0.6743115,0.20786865,0.72059816,335,"2022-12-27T00:40:22.599Z"
39,0.6732788,0.20858887,0.7216626,334,"2022-12-27T00:41:23.161Z"
35,-0.63566405,-0.49316895,-0.59867674,326,"2022-12-27T00:42:23.723Z"
35,-0.6202686,-0.49918947,-0.61133057,326,"2022-12-27T00:43:24.286Z"
39,0.6325415,-0.15324707,0.7751245,333,"2022-12-27T00:44:24.848Z"
36,0.5761792,-0.17181152,0.811919,333,"2022-12-27T00:45:25.410Z"
37,0.5750439,-0.1706958,0.8124634,333,"2022-12-27T00:46:25.972Z"
37,0.57579833,-0.17328614,0.81087404,332,"2022-12-27T00:47:26.534Z"
38,0.57648927,-0.17258544,0.81082517,331,"2022-12-27T00:48:27.097Z"
35,0.5744458,-0.16306885,0.81416017,331,"2022-12-27T00:49:27.667Z"
37,0.57390624,-0.1623755,0.81447023,330,"2022-12-27T00:50:28.234Z"
37,0.573728,-0.16097412,0.81473875,330,"2022-12-27T00:51:28.796Z"
37,0.57271487,-0.15938477,0.8159033,329,"2022-12-27T00:52:29.358Z"
38,0.57421875,-0.16291259,0.8142871,329,"2022-12-27T00:53:29.920Z"
37,0.57210207,-0.15986817,0.8165454,329,"2022-12-27T00:54:30.482Z"
36,0.572417,-0.15977539,0.8169458,328,"2022-12-27T00:55:31.045Z"
38,0.5724292,-0.15963623,0.8164307,328,"2022-12-27T00:56:31.607Z"
36,0.57038575,-0.16327637,0.8169897,328,"2022-12-27T00:57:32.168Z"
36,0.5702173,-0.16304444,0.8176172,327,"2022-12-27T00:58:32.731Z"
37,0.5703076,-0.16324463,0.8167969,327,"2022-12-27T00:59:33.293Z"
36,0.5731152,-0.16603027,0.81463134,326,"2022-12-27T01:00:33.856Z"
35,0.57044435,-0.16381592,0.8171021,326,"2022-12-27T01:01:34.418Z"
36,0.570376,-0.16338867,0.81669676,326,"2022-12-27T01:02:34.980Z"
37,0.5730005,-0.16766113,0.814375,325,"2022-12-27T01:03:35.542Z"
36,0.57000977,-0.16359863,0.81735593,325,"2022-12-27T01:04:36.104Z"
37,0.5720166,-0.16640869,0.8150635,324,"2022-12-27T01:05:36.667Z"
36,0.57157713,-0.16492188,0.8155127,324,"2022-12-27T01:06:37.229Z"
36,0.572915,-0.16762452,0.81410646,324,"2022-12-27T01:07:37.791Z"
35,0.5699707,-0.16476318,0.8167212,323,"2022-12-27T01:08:38.362Z"
37,0.57273924,-0.1679419,0.81438476,323,"2022-12-27T01:09:38.928Z"
36,0.56982666,-0.16405517,0.8177954,322,"2022-12-27T01:10:39.490Z"
37,0.570647,-0.16433838,0.8169849,321,"2022-12-27T01:11:40.052Z"
36,0.56922853,-0.16460449,0.8173169,321,"2022-12-27T01:12:40.615Z"
38,0.5696045,-0.16343994,0.81744874,321,"2022-12-27T01:13:41.177Z"
36,0.56970704,-0.16360596,0.8173389,320,"2022-12-27T01:14:41.739Z"
37,0.5710645,-0.16548829,0.81577635,320,"2022-12-27T01:15:42.301Z"
32,0.52996826,-0.16972657,0.84225345,316,"2022-12-27T01:16:42.864Z"
36,0.53193116,-0.17106201,0.8402295,320,"2022-12-27T01:17:43.425Z"
35,0.5285181,-0.16886474,0.84292966,319,"2022-12-27T01:18:43.988Z"
36,0.5307837,-0.17353028,0.84043944,320,"2022-12-27T01:19:44.550Z"
37,0.52959716,-0.17047364,0.8420825,320,"2022-12-27T01:20:45.112Z"
42,0.5286084,-0.16801514,0.84365726,321,"2022-12-27T01:21:45.675Z"
42,0.534209,-0.18151611,0.83652097,321,"2022-12-27T01:22:46.237Z"
44,0.52695554,-0.16623779,0.84453857,321,"2022-12-27T01:23:46.799Z"
41,0.5264062,-0.16544922,0.84488034,319,"2022-12-27T01:24:47.361Z"
41,0.5264258,-0.16465576,0.84462404,320,"2022-12-27T01:25:47.923Z"
45,0.5283911,-0.16961426,0.84256834,320,"2022-12-27T01:26:48.486Z"
37,0.52896,-0.17410156,0.8411865,320,"2022-12-27T01:27:49.055Z"
41,0.52716553,-0.16526611,0.843999,320,"2022-12-27T01:28:49.623Z"
37,0.50727296,-0.65906984,-0.5963037,320,"2022-12-27T01:29:50.185Z"
44,0.50781494,-0.6569287,-0.5980371,320,"2022-12-27T01:30:50.747Z"
42,0.50861573,-0.65618163,-0.598562,319,"2022-12-27T01:31:51.309Z"
47,0.5038232,-0.673042,-0.5843189,319,"2022-12-27T01:32:51.871Z"
37,0.5244873,-0.10932861,0.8537036,320,"2022-12-27T01:33:52.434Z"
40,0.51884764,-0.109897465,0.8575635,319,"2022-12-27T01:34:52.996Z"
36,0.51571774,-0.11162353,0.8589453,319,"2022-12-27T01:35:53.558Z"
41,0.5157446,-0.11034912,0.8591235,318,"2022-12-27T01:36:54.120Z"
33,0.5183032,-0.10889649,0.85771483,318,"2022-12-27T01:37:54.682Z"
36,0.51462644,-0.107819825,0.85979,318,"2022-12-27T01:38:55.245Z"
38,0.5132715,-0.10873291,0.8606665,317,"2022-12-27T01:39:55.807Z"
35,0.5118042,-0.108344726,0.8617505,317,"2022-12-27T01:40:56.369Z"
35,0.51234865,-0.10712647,0.8611914,317,"2022-12-27T01:41:56.931Z"
37,0.51114255,-0.10772705,0.86226565,317,"2022-12-27T01:42:57.493Z"
35,0.5122339,-0.10731201,0.86141604,317,"2022-12-27T01:43:58.056Z"
35,0.5123291,-0.10690674,0.8611719,317,"2022-12-27T01:44:58.618Z"
36,0.5126904,-0.10650147,0.8612891,317,"2022-12-27T01:45:59.180Z"
36,0.51196045,-0.105615236,0.8616992,317,"2022-12-27T01:46:59.750Z"
37,0.51293457,-0.105285645,0.8606812,317,"2022-12-27T01:48:00.317Z"
37,0.5110425,-0.106870115,0.8620996,317,"2022-12-27T01:49:00.879Z"
37,0.5092969,-0.10343994,0.86322266,317,"2022-12-27T01:50:01.441Z"
37,0.5098926,-0.10323242,0.86294436,317,"2022-12-27T01:51:02.003Z"
38,0.51103514,-0.10204101,0.8630591,317,"2022-12-27T01:52:02.566Z"
38,0.5090454,-0.10250488,0.86370605,317,"2022-12-27T01:53:03.128Z"
36,0.5064844,-0.10102783,0.8652075,317,"2022-12-27T01:54:03.690Z"
36,0.5069629,-0.10073975,0.86490476,317,"2022-12-27T01:55:04.252Z"
37,0.50625974,-0.10097412,0.86505616,317,"2022-12-27T01:56:04.814Z"
36,0.50702393,-0.100092776,0.8652197,317,"2022-12-27T01:57:05.377Z"
37,0.50713134,-0.09977295,0.8647144,317,"2022-12-27T01:58:05.939Z"
35,0.5075659,-0.09976563,0.8651807,317,"2022-12-27T01:59:06.501Z"
36,0.5079639,-0.09934571,0.8640674,317,"2022-12-27T02:00:07.063Z"
36,0.5083765,-0.09891602,0.86393064,317,"2022-12-27T02:01:07.626Z"
51,0.45877197,-0.8778711,0.25428224,313,"2022-12-27T02:02:08.188Z"
38,0.45799074,-0.8795532,0.2488086,309,"2022-12-27T02:03:08.750Z"
36,0.4586011,-0.88020265,0.24721923,308,"2022-12-27T02:04:09.312Z"
37,0.45814455,-0.8806836,0.24510498,307,"2022-12-27T02:05:09.875Z"
37,0.45760742,-0.88222414,0.24332519,306,"2022-12-27T02:06:10.445Z"
36,0.45699707,-0.8823462,0.2419751,306,"2022-12-27T02:07:11.011Z"
38,0.4563672,-0.8834424,0.24000733,305,"2022-12-27T02:08:11.574Z"
41,0.4561792,-0.8831543,0.24204345,304,"2022-12-27T02:09:12.136Z"
38,0.4548169,-0.8850269,0.23773682,303,"2022-12-27T02:10:12.698Z"
37,0.45475587,-0.88427246,0.23874512,302,"2022-12-27T02:11:13.260Z"
37,0.45348388,-0.88479733,0.23788086,302,"2022-12-27T02:12:13.823Z"
37,0.4535254,-0.8858618,0.23723632,302,"2022-12-27T02:13:14.385Z"
37,0.4532666,-0.8873999,0.23167725,301,"2022-12-27T02:14:14.947Z"
37,0.4526758,-0.8882715,0.23040771,301,"2022-12-27T02:15:15.509Z"
40,0.45324463,-0.88818115,0.22936036,300,"2022-12-27T02:16:16.071Z"
38,0.45307374,-0.8880176,0.23001221,300,"2022-12-27T02:17:16.634Z"
36,0.45309082,-0.88813967,0.22936036,299,"2022-12-27T02:18:17.196Z"
47,0.56568605,-0.13588135,0.8244141,310,"2022-12-27T02:19:17.758Z"
52,-0.17257568,0.010795899,0.97226804,312,"2022-12-27T02:20:18.305Z"
38,-0.17045899,0.0010986328,0.9737378,311,"2022-12-27T02:21:18.867Z"
38,-0.17029542,-0.006308594,0.9740625,314,"2022-12-27T02:22:19.430Z"
41,-0.1709668,-0.012097168,0.97423095,318,"2022-12-27T02:23:19.992Z"
34,-0.1730542,-0.012905274,0.97404784,321,"2022-12-27T02:24:20.554Z"
34,-0.17082031,-0.012922363,0.9748145,324,"2022-12-27T02:25:21.125Z"
35,-0.17127685,-0.015131836,0.9746289,327,"2022-12-27T02:26:21.691Z"
34,-0.17017335,-0.015229492,0.9749243,329,"2022-12-27T02:27:22.253Z"
35,-0.17221436,-0.019550782,0.9746484,330,"2022-12-27T02:28:22.815Z"
38,-0.14163575,0.12597167,0.9613989,332,"2022-12-27T02:29:23.378Z"
35,-0.16462891,0.11395996,0.96884036,336,"2022-12-27T02:30:23.940Z"
37,-0.16807128,0.110766605,0.96791995,338,"2022-12-27T02:31:24.502Z"
36,-0.1675586,0.10984375,0.96793944,339,"2022-12-27T02:32:25.064Z"
38,-0.16704346,0.109780274,0.9679224,340,"2022-12-27T02:33:25.626Z"
36,-0.1625,0.11135742,0.968999,341,"2022-12-27T02:34:26.189Z"
35,-0.16443847,0.10978272,0.969104,342,"2022-12-27T02:35:26.751Z"
37,-0.16194825,0.11121826,0.96967286,343,"2022-12-27T02:36:27.313Z"
38,-0.1637207,0.10973633,0.96912843,343,"2022-12-27T02:37:27.875Z"
34,0.6636548,0.16030762,0.744729,345,"2022-12-27T02:38:28.438Z"
34,0.6630176,0.15971924,0.7444995,345,"2022-12-27T02:39:29.000Z"
35,0.66531736,0.15761963,0.74376464,344,"2022-12-27T02:40:29.562Z"
34,0.6130786,0.27995604,0.7492261,345,"2022-12-27T02:41:30.124Z"
36,0.6119165,0.2822046,0.7485645,345,"2022-12-27T02:42:30.686Z"
39,0.61412597,0.28171143,0.74771726,344,"2022-12-27T02:43:31.248Z"
36,0.6124121,0.28263915,0.7489355,344,"2022-12-27T02:44:31.811Z"
39,0.6131982,0.2821338,0.7471338,345,"2022-12-27T02:45:32.385Z"
38,0.610957,0.2827368,0.7495801,345,"2022-12-27T02:46:32.948Z"
41,0.61269534,0.28164062,0.7478442,345,"2022-12-27T02:47:33.509Z"
64,0.33156982,-0.9545019,0.15643066,345,"2022-12-27T02:48:34.072Z"
40,0.3532373,-0.9525073,0.12086914,342,"2022-12-27T02:49:34.634Z"
46,0.35122558,-0.95332766,0.11873291,339,"2022-12-27T02:50:35.196Z"
45,0.34980956,-0.95492435,0.11195068,336,"2022-12-27T02:51:35.758Z"
46,0.3495996,-0.9550049,0.11085937,333,"2022-12-27T02:52:36.321Z"
41,0.3486499,-0.9548877,0.111875,330,"2022-12-27T02:53:36.883Z"
44,0.3495215,-0.9549683,0.110830076,328,"2022-12-27T02:54:37.445Z"
60,0.5433862,0.41101807,0.73686767,332,"2022-12-27T02:55:38.007Z"
44,0.5446533,0.3846289,0.74940187,334,"2022-12-27T02:56:38.569Z"
41,0.54357177,0.38976073,0.747937,334,"2022-12-27T02:57:39.131Z"
43,0.5422339,0.39089844,0.74872804,335,"2022-12-27T02:58:39.694Z"
44,0.5428198,0.39395264,0.74638426,336,"2022-12-27T02:59:40.256Z"
47,0.5437671,0.39415282,0.74670166,336,"2022-12-27T03:00:40.818Z"
39,0.54224855,0.39581543,0.74738526,337,"2022-12-27T03:01:41.380Z"
36,0.54301023,0.3965503,0.7455493,338,"2022-12-27T03:02:41.943Z"
44,0.54274905,0.3961743,0.74595946,339,"2022-12-27T03:03:42.505Z"
36,0.5439233,0.39684325,0.7456226,340,"2022-12-27T03:04:43.079Z"
44,0.5424878,0.3978491,0.74654055,340,"2022-12-27T03:05:43.641Z"
57,-0.40312013,-0.5892236,-0.7125244,341,"2022-12-27T03:06:44.204Z"
34,-0.38999268,-0.5888989,-0.72061276,339,"2022-12-27T03:07:44.765Z"
36,-0.38572997,-0.59072024,-0.72106934,340,"2022-12-27T03:08:45.328Z"
67,-0.7965894,0.55166507,-0.17180176,342,"2022-12-27T03:09:45.890Z"
73,-0.89810544,0.13552979,-0.38086915,341,"2022-12-27T03:10:46.452Z"
75,0.15991211,-0.017539062,0.9637085,336,"2022-12-27T03:11:47.015Z"
39,-0.5706421,0.02686035,0.7968433,336,"2022-12-27T03:12:47.577Z"
36,-0.56811523,0.025808105,0.79882324,337,"2022-12-27T03:13:48.139Z"
37,-0.5678491,0.026113281,0.79986817,338,"2022-12-27T03:14:48.701Z"
36,-0.5678833,0.024838867,0.8004956,339,"2022-12-27T03:15:49.263Z"
39,-0.567312,0.024916992,0.8004126,341,"2022-12-27T03:16:49.826Z"
35,-0.56845945,0.018635254,0.8001343,342,"2022-12-27T03:17:50.388Z"
37,-0.5671997,0.01928711,0.8005054,343,"2022-12-27T03:18:50.950Z"
35,-0.56842774,0.017106934,0.80094236,344,"2022-12-27T03:19:51.512Z"
34,-0.5675,0.017148437,0.80129397,345,"2022-12-27T03:20:52.074Z"
35,-0.56766844,0.016428223,0.8013428,346,"2022-12-27T03:21:52.636Z"
38,-0.56789553,0.015654298,0.8014282,347,"2022-12-27T03:22:53.199Z"
40,-0.56883544,0.014279786,0.8006836,348,"2022-12-27T03:23:53.773Z"
38,-0.56982666,0.0125537105,0.8000171,348,"2022-12-27T03:24:54.336Z"
33,-0.5681079,0.01560791,0.8009448,349,"2022-12-27T03:25:54.898Z"
34,-0.570398,0.012438965,0.79945314,349,"2022-12-27T03:26:55.460Z"
39,-0.56989014,0.01289795,0.79989743,350,"2022-12-27T03:27:56.022Z"
34,-0.570354,0.015036621,0.79986084,350,"2022-12-27T03:28:56.584Z"
36,-0.56878173,0.007973633,0.801145,351,"2022-12-27T03:29:57.146Z"
37,-0.56832767,0.008144531,0.8012354,351,"2022-12-27T03:30:57.709Z"
36,-0.5692334,0.0067041013,0.8008594,352,"2022-12-27T03:31:58.271Z"
37,-0.56771,0.0060327146,0.8026074,352,"2022-12-27T03:32:58.833Z"
35,-0.56718016,0.0058813477,0.8021655,352,"2022-12-27T03:33:59.395Z"
35,-0.5675,0.004284668,0.8020142,352,"2022-12-27T03:34:59.957Z"
35,-0.56815916,0.00069580076,0.8015112,353,"2022-12-27T03:36:00.520Z"
38,-0.5679687,0.00037353515,0.80204344,353,"2022-12-27T03:37:01.082Z"
36,-0.5694678,-0.0014916993,0.80070555,353,"2022-12-27T03:38:01.644Z"
35,-0.5686499,-0.0017700195,0.80192626,354,"2022-12-27T03:39:02.206Z"
37,-0.5674365,0.0014013671,0.80206543,354,"2022-12-27T03:40:02.768Z"
37,-0.56784666,0.0010888672,0.80228025,354,"2022-12-27T03:41:03.331Z"
34,-0.56768554,0.00049072265,0.8023291,355,"2022-12-27T03:42:03.893Z"
37,-0.5673779,-0.00028808592,0.80203366,355,"2022-12-27T03:43:04.467Z"
38,-0.5676563,0.0011376953,0.8019824,355,"2022-12-27T03:44:05.030Z"
37,-0.5671777,0.00056884764,0.8020361,355,"2022-12-27T03:45:05.592Z"
36,-0.56754637,0.00006591797,0.80232424,355,"2022-12-27T03:46:06.154Z"
38,-0.5696924,-0.002138672,0.80046874,356,"2022-12-27T03:47:06.716Z"
37,-0.5677466,-0.00069824216,0.8019995,356,"2022-12-27T03:48:07.278Z"
37,-0.56840575,-0.0010327148,0.8013647,356,"2022-12-27T03:49:07.840Z"
37,-0.56998533,-0.0025805663,0.80081296,356,"2022-12-27T03:50:08.403Z"
37,-0.5678662,-0.0013500977,0.80187744,356,"2022-12-27T03:51:08.965Z"
39,-0.56869143,-0.0020507812,0.8020801,357,"2022-12-27T03:52:09.527Z"
38,-0.5677686,-0.0018554687,0.80189455,357,"2022-12-27T03:53:10.089Z"
36,-0.5666089,0.006345215,0.8025415,357,"2022-12-27T03:54:10.651Z"
38,-0.5686548,-0.00069824216,0.80171144,357,"2022-12-27T03:55:11.213Z"
37,-0.56894773,-0.0010400391,0.80196536,357,"2022-12-27T03:56:11.776Z"
53,0.52527833,0.2691919,0.8157202,356,"2022-12-27T03:57:12.338Z"
39,0.5383911,0.19396973,0.82825196,355,"2022-12-27T03:58:12.900Z"
36,0.5370142,0.19526856,0.8282593,354,"2022-12-27T03:59:13.462Z"
47,-0.041398928,-0.6106592,-0.80871826,353,"2022-12-27T04:00:14.024Z"
40,-0.042150877,-0.610918,-0.8085034,350,"2022-12-27T04:01:14.586Z"
42,-0.040961914,-0.59890383,-0.81838137,348,"2022-12-27T04:02:15.160Z"
41,-0.0410791,-0.59840333,-0.81871337,347,"2022-12-27T04:03:15.723Z"
38,-0.040205076,-0.596333,-0.82044435,346,"2022-12-27T04:04:16.285Z"
44,-0.040720213,-0.59579104,-0.8209351,345,"2022-12-27T04:05:16.847Z"
39,0.63383055,0.007963867,0.78658205,344,"2022-12-27T04:06:17.409Z"
40,0.6383984,0.0143603515,0.78315187,344,"2022-12-27T04:07:17.971Z"
42,0.6191016,-0.1379419,0.7877783,346,"2022-12-27T04:08:18.533Z"
42,0.6174463,-0.14131592,0.7895459,346,"2022-12-27T04:09:19.096Z"
43,0.61744875,-0.14297608,0.7892871,346,"2022-12-27T04:10:19.643Z"
46,0.616311,-0.14398926,0.7899023,346,"2022-12-27T04:11:20.205Z"
42,0.6161865,-0.14388184,0.7900146,347,"2022-12-27T04:12:20.767Z"
40,0.6156714,-0.17119873,0.78503174,347,"2022-12-27T04:13:21.330Z"
44,0.61625,-0.1705542,0.7854126,348,"2022-12-27T04:14:21.892Z"
44,0.61723876,-0.1687622,0.7850195,348,"2022-12-27T04:15:22.454Z"
59,0.649668,-0.0041455077,0.77549314,349,"2022-12-27T04:16:23.016Z"
42,0.6474658,-0.006467285,0.77772707,348,"2022-12-27T04:17:23.578Z"
43,0.64688474,-0.005283203,0.7777612,348,"2022-12-27T04:18:24.140Z"
42,0.6495703,-0.013203125,0.7758179,348,"2022-12-27T04:19:24.703Z"
39,0.6475073,-0.012780761,0.77783203,348,"2022-12-27T04:20:25.265Z"
39,0.64808595,-0.014338379,0.77649903,349,"2022-12-27T04:21:25.840Z"
36,0.6465625,-0.013500976,0.7774438,349,"2022-12-27T04:22:26.402Z"
42,0.6477881,-0.013740234,0.77715087,349,"2022-12-27T04:23:26.964Z"
40,0.6463794,-0.011442871,0.7782178,349,"2022-12-27T04:24:27.526Z"
39,0.6462964,-0.011186523,0.7782446,349,"2022-12-27T04:25:28.088Z"
37,0.64593506,-0.011359863,0.77895266,350,"2022-12-27T04:26:28.650Z"
47,0.55557615,-0.13327149,0.83341306,348,"2022-12-27T04:27:29.213Z"
44,0.5543262,-0.12780029,0.83463866,348,"2022-12-27T04:28:29.775Z"
36,0.55303955,-0.12674561,0.83596194,348,"2022-12-27T04:29:30.337Z"
44,0.5538916,-0.12445313,0.8360889,348,"2022-12-27T04:30:30.899Z"
37,0.55423826,-0.12186279,0.8363941,348,"2022-12-27T04:31:31.461Z"
42,0.5540259,-0.121950686,0.8358374,348,"2022-12-27T04:32:32.023Z"
42,0.5521924,-0.12145019,0.8373682,348,"2022-12-27T04:33:32.585Z"
42,0.5519922,-0.12015137,0.8371045,349,"2022-12-27T04:34:33.148Z"
38,0.5522632,-0.124748535,0.83736086,348,"2022-12-27T04:35:33.710Z"
43,0.5531714,-0.12409912,0.8364111,349,"2022-12-27T04:36:34.272Z"
38,0.5523657,-0.12370117,0.8375122,349,"2022-12-27T04:37:34.834Z"
41,0.54992676,-0.11727295,0.8395044,349,"2022-12-27T04:38:35.396Z"
44,0.5504248,-0.116931155,0.83914304,349,"2022-12-27T04:39:35.959Z"
44,0.5500415,-0.115827635,0.83926755,349,"2022-12-27T04:40:36.533Z"
36,0.5509448,-0.11612061,0.83868897,349,"2022-12-27T04:41:37.096Z"
53,0.006640625,-0.4718286,-0.89776367,349,"2022-12-27T04:42:37.658Z"
39,0.0022119142,-0.4742285,-0.89761233,348,"2022-12-27T04:43:38.219Z"
50,0.0011889648,-0.47552,-0.89653075,346,"2022-12-27T04:44:38.782Z"
36,0.0009423828,-0.47568604,-0.8969531,344,"2022-12-27T04:45:39.344Z"
40,0.0002758789,-0.47706786,-0.8959082,342,"2022-12-27T04:46:39.906Z"
41,-0.0012255859,-0.48273927,-0.89335936,341,"2022-12-27T04:47:40.469Z"
42,-0.0011254883,-0.48362792,-0.8928711,340,"2022-12-27T04:48:41.031Z"
47,-0.0012109375,-0.48316652,-0.8926953,339,"2022-12-27T04:49:41.593Z"
40,-0.001184082,-0.48305175,-0.89293945,339,"2022-12-27T04:50:42.155Z"
38,-0.0011499024,-0.4853125,-0.8918774,338,"2022-12-27T04:51:42.718Z"
47,-0.0006396484,-0.48553222,-0.8917432,338,"2022-12-27T04:52:43.280Z"
40,-0.000979004,-0.48704347,-0.8911963,339,"2022-12-27T04:53:43.842Z"
47,-0.0010205078,-0.48740235,-0.8908569,339,"2022-12-27T04:54:44.404Z"
44,0.04373535,-1.0170361,-0.008918457,337,"2022-12-27T04:55:44.966Z"
47,0.049416505,-1.0169067,-0.0049389647,332,"2022-12-27T04:56:45.528Z"
39,0.056931153,-1.0164746,-0.0011157227,330,"2022-12-27T04:57:46.091Z"
46,0.056381837,-1.0166382,-0.0057495115,327,"2022-12-27T04:58:46.653Z"
48,0.056865234,-1.0161719,-0.011398925,325,"2022-12-27T04:59:47.228Z"
44,0.059436034,-1.0166407,-0.006977539,324,"2022-12-27T05:00:47.790Z"
41,0.059660643,-1.0163453,-0.007219238,322,"2022-12-27T05:01:48.352Z"
45,0.63696533,-0.21576661,0.7571167,331,"2022-12-27T05:02:48.914Z"
38,0.63562745,-0.22355957,0.7557642,333,"2022-12-27T05:03:49.476Z"
36,0.63401854,-0.22272705,0.7578027,333,"2022-12-27T05:04:50.039Z"
39,-0.048723146,-1.0067627,-0.1311206,328,"2022-12-27T05:05:50.601Z"
39,-0.050441895,-1.0070605,-0.13292481,326,"2022-12-27T05:06:51.163Z"
40,-0.051118165,-1.0065967,-0.13424072,325,"2022-12-27T05:07:51.725Z"
41,-0.050637208,-1.006438,-0.13578369,325,"2022-12-27T05:08:52.287Z"
42,-0.051328126,-1.0061303,-0.13717529,324,"2022-12-27T05:09:52.850Z"
56,-0.22419922,0.84656495,0.47122315,332,"2022-12-27T05:10:53.412Z"
71,-0.0052587893,0.980188,0.14367676,332,"2022-12-27T05:11:53.974Z"
77,0.507522,0.83835447,-0.20639649,330,"2022-12-27T05:12:54.536Z"
68,0.13478027,0.8048071,-0.07042969,328,"2022-12-27T05:13:55.098Z"
69,-0.7435864,0.66385496,-0.040424805,326,"2022-12-27T05:14:55.660Z"
58,-0.02230713,0.9882373,-0.11079834,321,"2022-12-27T05:15:56.223Z"
73,-0.81313723,0.53713137,0.0019042969,322,"2022-12-27T05:16:56.785Z"
50,0.08766113,-1.0116504,0.08151123,322,"2022-12-27T05:17:57.347Z"
50,0.0875708,-1.0121045,0.07112793,321,"2022-12-27T05:18:57.909Z"
43,0.08612793,-1.0127368,0.06486817,322,"2022-12-27T05:19:58.471Z"
41,0.08565185,-1.0130883,0.063632816,324,"2022-12-27T05:20:59.034Z"
41,0.085510254,-1.0137427,0.06267334,325,"2022-12-27T05:21:59.596Z"
41,0.08514404,-1.0137012,0.061835937,326,"2022-12-27T05:23:00.158Z"
41,-0.030695802,-0.75903076,-0.67586184,323,"2022-12-27T05:24:00.706Z"
42,-0.030544434,-0.76158935,-0.67316407,323,"2022-12-27T05:25:01.268Z"
40,-0.030917969,-0.7630542,-0.6717725,324,"2022-12-27T05:26:01.830Z"
40,-0.09545654,-0.86003417,-0.53234375,326,"2022-12-27T05:27:02.392Z"
40,-0.094606936,-0.8643433,-0.5270679,327,"2022-12-27T05:28:02.939Z"
40,-0.09440674,-0.8654077,-0.52394533,328,"2022-12-27T05:29:03.502Z"
41,-0.09367187,-0.8680542,-0.5207129,328,"2022-12-27T05:30:04.064Z"
39,-0.09105713,-0.86726075,-0.52275634,329,"2022-12-27T05:31:04.626Z"
42,-0.086555175,-0.87047607,-0.5183496,329,"2022-12-27T05:32:05.188Z"
39,-0.08401123,-0.87093264,-0.5177808,329,"2022-12-27T05:33:05.750Z"
39,-0.0841333,-0.8707153,-0.5180395,329,"2022-12-27T05:34:06.313Z"
38,-0.072026365,-0.8785547,-0.50751466,330,"2022-12-27T05:35:06.875Z"
42,-0.071867675,-0.8781079,-0.5073975,329,"2022-12-27T05:36:07.437Z"
39,-0.07246582,-0.87875,-0.50694335,330,"2022-12-27T05:37:07.999Z"
40,-0.06525146,-0.8890601,-0.489646,329,"2022-12-27T05:38:08.562Z"
44,-0.06533203,-0.8839673,-0.4988379,330,"2022-12-27T05:39:09.124Z"
37,-0.0645581,-0.8663257,-0.528667,330,"2022-12-27T05:40:09.686Z"
37,-0.06338623,-0.8655786,-0.5307251,330,"2022-12-27T05:41:10.248Z"
44,-0.0632373,-0.8649023,-0.5309253,330,"2022-12-27T05:42:10.810Z"
53,0.9019922,-0.15003906,0.45174804,334,"2022-12-27T05:43:11.372Z"
34,0.89383787,-0.13213378,0.47215575,334,"2022-12-27T05:44:11.935Z"
37,0.8934643,-0.12570801,0.47331297,332,"2022-12-27T05:45:12.497Z"
37,0.89500487,-0.119814456,0.47282714,329,"2022-12-27T05:46:13.059Z"
37,0.89516604,-0.119353026,0.4730005,327,"2022-12-27T05:47:13.621Z"
36,0.8948633,-0.118239745,0.47274414,325,"2022-12-27T05:48:14.183Z"
39,0.89382327,-0.12602295,0.4738794,323,"2022-12-27T05:49:14.746Z"
33,0.87864745,-0.118488766,0.50113523,321,"2022-12-27T05:50:15.308Z"
38,0.878479,-0.117465824,0.50264895,320,"2022-12-27T05:51:15.882Z"
34,-0.08328369,-0.43387696,-0.91412354,317,"2022-12-27T05:52:16.445Z"
40,-0.08149414,-0.43637452,-0.91289794,317,"2022-12-27T05:53:17.007Z"
36,-0.080915526,-0.44339356,-0.90898436,318,"2022-12-27T05:54:17.569Z"
37,-0.0797998,-0.445105,-0.9087549,319,"2022-12-27T05:55:18.131Z"
43,-0.079213865,-0.44830322,-0.90662354,320,"2022-12-27T05:56:18.693Z"
38,-0.07769043,-0.44458497,-0.9082593,321,"2022-12-27T05:57:19.256Z"
39,-0.07668701,-0.44501954,-0.90818846,322,"2022-12-27T05:58:19.818Z"
38,-0.07583496,-0.44353026,-0.9093677,323,"2022-12-27T05:59:20.380Z"
55,0.7032959,0.4244287,-0.6479321,324,"2022-12-27T06:00:20.942Z"
35,0.55582273,0.2583789,0.796897,326,"2022-12-27T06:01:21.504Z"
36,0.54980224,0.23162842,0.80922854,327,"2022-12-27T06:02:22.067Z"
42,0.5498413,0.23291992,0.8095044,328,"2022-12-27T06:03:22.629Z"
38,0.5502881,0.2248706,0.8118433,329,"2022-12-27T06:04:23.191Z"
39,0.54916745,0.24147949,0.8075708,330,"2022-12-27T06:05:23.753Z"
38,0.5458545,0.25752684,0.80445313,331,"2022-12-27T06:06:24.315Z"
38,0.54586184,0.25702637,0.80528563,332,"2022-12-27T06:07:24.878Z"
40,0.5451416,0.25779542,0.8056226,333,"2022-12-27T06:08:25.440Z"
38,0.54482424,0.2587793,0.80474854,334,"2022-12-27T06:09:26.002Z"
47,0.64508057,0.05402832,0.7767334,336,"2022-12-27T06:10:26.577Z"
