"hr","accel_x","accel_y","accel_z","skin_temp","ts"
44,0.5534961,0.34391358,0.76819825,356,"2023-02-04T00:00:00.911Z"
42,0.5539844,0.34424073,0.7682178,356,"2023-02-04T00:01:01.473Z"
42,0.5547241,0.34467041,0.7678931,356,"2023-02-04T00:02:02.036Z"
42,0.55451906,0.3439917,0.7684595,356,"2023-02-04T00:03:02.598Z"
45,0.554646,0.34462646,0.76825684,356,"2023-02-04T00:04:03.160Z"
42,0.5535303,0.34376708,0.76897216,356,"2023-02-04T00:05:03.722Z"
43,0.5543433,0.34398437,0.769104,356,"2023-02-04T00:06:04.284Z"
43,0.55327636,0.34302735,0.7701514,356,"2023-02-04T00:07:04.847Z"
43,0.5533789,0.34272218,0.769856,356,"2023-02-04T00:08:05.409Z"
43,0.55328125,0.34227294,0.76976806,357,"2023-02-04T00:09:05.971Z"
44,0.55372804,0.342395,0.76923585,357,"2023-02-04T00:10:06.533Z"
44,0.5552319,0.34415528,0.76764894,357,"2023-02-04T00:11:07.095Z"
42,0.553855,0.34323487,0.7696875,357,"2023-02-04T00:12:07.658Z"
45,0.55398923,0.34214357,0.7699219,357,"2023-02-04T00:13:08.220Z"
42,0.5534351,0.34312743,0.76964355,357,"2023-02-04T00:14:08.782Z"
56,0.6426465,-0.2978052,0.72923094,356,"2023-02-04T00:15:09.344Z"
45,0.644812,-0.30188233,0.7260132,356,"2023-02-04T00:16:09.906Z"
43,0.64441895,-0.30230957,0.7259131,356,"2023-02-04T00:17:10.469Z"
52,0.6539478,-0.40750733,0.6660132,356,"2023-02-04T00:18:11.031Z"
45,0.65503174,-0.40709716,0.66550046,356,"2023-02-04T00:19:11.606Z"
40,0.56638914,-0.13433105,0.82771486,356,"2023-02-04T00:20:12.168Z"
44,0.56404054,-0.14871827,0.8272827,356,"2023-02-04T00:21:12.730Z"
47,0.57536864,-0.18815674,0.8136255,356,"2023-02-04T00:22:13.292Z"
46,0.5745459,-0.17333984,0.81650877,355,"2023-02-04T00:23:13.854Z"
44,0.58687013,-0.13332519,0.8143457,355,"2023-02-04T00:24:14.417Z"
43,0.5665112,-0.12868896,0.829375,355,"2023-02-04T00:25:14.979Z"
44,0.5661401,-0.1295752,0.8292651,355,"2023-02-04T00:26:15.541Z"
43,0.56865233,-0.13623291,0.8267456,355,"2023-02-04T00:27:16.104Z"
38,0.57593507,-0.1278833,0.8231348,355,"2023-02-04T00:28:16.666Z"
41,0.5749902,-0.12779541,0.8232007,356,"2023-02-04T00:29:17.228Z"
44,0.5714502,-0.1261084,0.8269141,355,"2023-02-04T00:30:17.790Z"
57,0.5480908,-0.5463843,0.6601953,355,"2023-02-04T00:31:18.352Z"
40,0.54887694,-0.5445874,0.6614063,355,"2023-02-04T00:32:18.915Z"
45,0.548606,-0.5441064,0.66154784,355,"2023-02-04T00:33:19.477Z"
41,0.5492847,-0.5438623,0.66160643,355,"2023-02-04T00:34:20.039Z"
41,0.54920655,-0.543938,0.661499,355,"2023-02-04T00:35:20.601Z"
42,0.550874,-0.543562,0.65990967,355,"2023-02-04T00:36:21.163Z"
42,0.54980224,-0.54395264,0.6609375,355,"2023-02-04T00:37:21.726Z"
40,0.5499658,-0.5442334,0.66093016,355,"2023-02-04T00:38:22.300Z"
42,0.54976565,-0.5444116,0.66096926,355,"2023-02-04T00:39:22.863Z"
44,0.54968995,-0.54420656,0.66061765,355,"2023-02-04T00:40:23.425Z"
43,0.54953855,-0.5441968,0.66082275,355,"2023-02-04T00:41:23.987Z"
43,0.5491821,-0.54371095,0.661062,355,"2023-02-04T00:42:24.549Z"
41,0.5493115,-0.5442554,0.6607227,355,"2023-02-04T00:43:25.111Z"
41,0.5500952,-0.54457766,0.6599976,355,"2023-02-04T00:44:25.674Z"
40,0.5509448,-0.5436792,0.65997314,355,"2023-02-04T00:45:26.236Z"
43,0.55106443,-0.5135718,0.6835791,355,"2023-02-04T00:46:26.798Z"
48,0.75072753,-0.14688233,0.647959,355,"2023-02-04T00:47:27.360Z"
44,0.7154126,0.098659664,0.7127295,355,"2023-02-04T00:48:27.922Z"
42,0.7121997,0.08665772,0.71767336,355,"2023-02-04T00:49:28.485Z"
48,0.38179198,0.013452148,0.8194946,355,"2023-02-04T00:50:29.047Z"
42,0.6234155,0.3237378,0.725498,354,"2023-02-04T00:51:29.609Z"
44,0.614397,0.16904053,0.7849976,354,"2023-02-04T00:52:30.171Z"
44,0.613208,0.17179687,0.78539795,353,"2023-02-04T00:53:30.734Z"
42,0.6123633,0.1720044,0.7860083,353,"2023-02-04T00:54:31.296Z"
42,0.77242434,-0.018999023,0.6411133,352,"2023-02-04T00:55:31.858Z"
40,0.6484204,0.21869141,0.7447412,352,"2023-02-04T00:56:32.420Z"
55,0.62799317,-0.36656737,0.71136963,353,"2023-02-04T00:57:32.990Z"
41,0.6272314,-0.37160155,0.70911133,352,"2023-02-04T00:58:33.557Z"
41,0.6164795,-0.35052246,0.72853273,352,"2023-02-04T00:59:34.119Z"
53,-0.65068114,-0.6635962,0.34260985,351,"2023-02-04T01:00:34.681Z"
43,-0.6727026,-0.65416014,0.32502198,351,"2023-02-04T01:01:35.244Z"
44,-0.6747681,-0.65338135,0.32311034,351,"2023-02-04T01:02:35.806Z"
42,-0.6737451,-0.6533374,0.32630128,351,"2023-02-04T01:03:36.368Z"
44,-0.672229,-0.652937,0.32917726,351,"2023-02-04T01:04:36.930Z"
45,-0.6703247,-0.6530786,0.33260986,352,"2023-02-04T01:05:37.493Z"
46,-0.6717456,-0.65438235,0.3298584,353,"2023-02-04T01:06:38.055Z"
43,-0.6719922,-0.654563,0.3284668,353,"2023-02-04T01:07:38.617Z"
46,-0.6712622,-0.6549829,0.3279907,353,"2023-02-04T01:08:39.179Z"
44,-0.66924316,-0.6544385,0.33342284,354,"2023-02-04T01:09:39.741Z"
48,-0.6686743,-0.6545044,0.33541748,354,"2023-02-04T01:10:40.304Z"
47,-0.66083986,-0.65990967,0.34146485,354,"2023-02-04T01:11:40.866Z"
51,-0.66076905,-0.6597388,0.3406909,355,"2023-02-04T01:12:41.428Z"
49,-0.6595288,-0.6592383,0.34233397,355,"2023-02-04T01:13:41.990Z"
46,-0.6586377,-0.65893555,0.34473145,355,"2023-02-04T01:14:42.552Z"
47,-0.65885985,-0.6590942,0.34413087,355,"2023-02-04T01:15:43.115Z"
49,-0.6587012,-0.6590747,0.3452661,356,"2023-02-04T01:16:43.685Z"
50,-0.65910155,-0.6589331,0.34429199,356,"2023-02-04T01:17:44.252Z"
44,-0.6589697,-0.659126,0.34488037,356,"2023-02-04T01:18:44.814Z"
47,-0.65372556,-0.6564795,0.3595288,356,"2023-02-04T01:19:45.376Z"
44,-0.65723634,-0.6583545,0.34962645,356,"2023-02-04T01:20:45.938Z"
46,-0.6565015,-0.6584009,0.35159668,356,"2023-02-04T01:21:46.500Z"
49,-0.6552661,-0.6576953,0.35628906,356,"2023-02-04T01:22:47.063Z"
46,-0.6572583,-0.6579175,0.35072753,357,"2023-02-04T01:23:47.625Z"
45,-0.65547854,-0.65747315,0.3541968,357,"2023-02-04T01:24:48.187Z"
48,-0.6560254,-0.65695554,0.35474855,357,"2023-02-04T01:25:48.749Z"
46,0.5409595,0.16041993,0.837561,356,"2023-02-04T01:26:49.312Z"
42,0.545166,0.15763427,0.8352271,356,"2023-02-04T01:27:49.874Z"
41,0.54647946,0.15483643,0.8339307,356,"2023-02-04T01:28:50.436Z"
49,0.5493164,0.15056153,0.8340161,355,"2023-02-04T01:29:50.998Z"
46,0.55176514,0.15274902,0.8316357,355,"2023-02-04T01:30:51.561Z"
43,0.5526074,0.1522876,0.8312427,355,"2023-02-04T01:31:52.123Z"
45,0.554209,0.15121338,0.830791,355,"2023-02-04T01:32:52.685Z"
45,0.55371094,0.14934327,0.8303955,355,"2023-02-04T01:33:53.247Z"
47,0.5559351,0.15246582,0.8288086,355,"2023-02-04T01:34:53.809Z"
46,0.5591919,0.15201417,0.82684326,355,"2023-02-04T01:35:54.380Z"
47,0.55784667,0.14870362,0.8276123,355,"2023-02-04T01:36:54.946Z"
46,0.5591748,0.14909424,0.827334,355,"2023-02-04T01:37:55.508Z"
45,0.561311,0.1488086,0.82595944,355,"2023-02-04T01:38:56.071Z"
42,0.5617139,0.1475879,0.82621825,356,"2023-02-04T01:39:56.633Z"
45,0.56249756,0.14708252,0.82592285,356,"2023-02-04T01:40:57.195Z"
43,0.5673926,0.14064209,0.82307863,356,"2023-02-04T01:41:57.757Z"
43,0.5680078,0.14207275,0.8225122,356,"2023-02-04T01:42:58.320Z"
45,0.569646,0.14278321,0.82258546,356,"2023-02-04T01:43:58.882Z"
47,0.5696948,0.14317627,0.822124,357,"2023-02-04T01:44:59.444Z"
42,0.56913084,0.14287597,0.8225977,357,"2023-02-04T01:46:00.006Z"
46,0.56924075,0.14221436,0.8225415,357,"2023-02-04T01:47:00.568Z"
44,0.5700879,0.14384766,0.82166994,357,"2023-02-04T01:48:01.131Z"
43,0.57071775,0.14344971,0.8215063,357,"2023-02-04T01:49:01.693Z"
46,0.6024805,0.019155273,0.81347656,357,"2023-02-04T01:50:02.255Z"
43,0.6027417,0.021240234,0.8131763,356,"2023-02-04T01:51:02.817Z"
49,0.61549073,0.050615236,0.80260986,357,"2023-02-04T01:52:03.379Z"
44,-0.5811572,-0.6291773,0.5034692,357,"2023-02-04T01:53:03.942Z"
47,-0.58029294,-0.6249145,0.5090063,357,"2023-02-04T01:54:04.504Z"
43,-0.6697461,-0.57910645,0.45047852,357,"2023-02-04T01:55:05.074Z"
45,-0.64813477,-0.5846362,0.46985108,356,"2023-02-04T01:56:05.641Z"
46,-0.6487744,-0.5843726,0.46896973,356,"2023-02-04T01:57:06.203Z"
47,-0.65108645,-0.5819482,0.46892577,355,"2023-02-04T01:58:06.765Z"
42,-0.65042233,-0.5815234,0.47078368,356,"2023-02-04T01:59:07.327Z"
42,-0.65428954,-0.5814111,0.4651636,355,"2023-02-04T02:00:07.890Z"
46,-0.657229,-0.5813257,0.46180177,355,"2023-02-04T02:01:08.452Z"
43,-0.6523193,-0.5797754,0.46908692,355,"2023-02-04T02:02:09.014Z"
39,-0.65674806,-0.5808447,0.46262208,355,"2023-02-04T02:03:09.576Z"
42,-0.6537427,-0.57666504,0.47275147,356,"2023-02-04T02:04:10.138Z"
44,-0.6528296,-0.5772534,0.47272217,355,"2023-02-04T02:05:10.701Z"
39,-0.6532227,-0.57668704,0.47287843,355,"2023-02-04T02:06:11.263Z"
42,-0.65384275,-0.57670164,0.47219726,355,"2023-02-04T02:07:11.825Z"
40,-0.65336424,-0.5429541,0.50950193,355,"2023-02-04T02:08:12.387Z"
45,-0.65448487,-0.542644,0.5083594,355,"2023-02-04T02:09:12.949Z"
41,-0.65755373,-0.54424804,0.5039258,355,"2023-02-04T02:10:13.512Z"
42,-0.6586499,-0.54381347,0.50127685,356,"2023-02-04T02:11:14.074Z"
43,-0.657168,-0.54422605,0.50294435,356,"2023-02-04T02:12:14.636Z"
38,-0.65601563,-0.543479,0.5066553,356,"2023-02-04T02:13:15.198Z"
41,-0.65548825,-0.5435156,0.5075488,356,"2023-02-04T02:14:15.769Z"
42,-0.66208494,-0.5446704,0.4970337,356,"2023-02-04T02:15:16.335Z"
37,-0.6545825,-0.5422363,0.5097925,356,"2023-02-04T02:16:16.897Z"
40,-0.65512204,-0.5420288,0.5095654,356,"2023-02-04T02:17:17.460Z"
39,-0.65757567,-0.5422559,0.50629395,356,"2023-02-04T02:18:18.022Z"
42,-0.6544165,-0.54211426,0.51009035,356,"2023-02-04T02:19:18.584Z"
40,-0.65587646,-0.5420898,0.50854737,356,"2023-02-04T02:20:19.146Z"
39,-0.65684325,-0.5416797,0.5070264,355,"2023-02-04T02:21:19.709Z"
39,-0.6547437,-0.5415723,0.5096558,355,"2023-02-04T02:22:20.271Z"
68,-0.6932275,-0.5761035,0.41347167,355,"2023-02-04T02:23:20.833Z"
46,-0.4533081,0.86917233,0.11484619,354,"2023-02-04T02:24:21.395Z"
46,0.57144773,0.28463867,0.7807129,353,"2023-02-04T02:25:21.958Z"
36,0.5836475,0.29011232,0.7710986,352,"2023-02-04T02:26:22.520Z"
36,0.5925195,0.29688233,0.76088136,352,"2023-02-04T02:27:23.082Z"
39,0.5944995,0.29874513,0.7593506,352,"2023-02-04T02:28:23.644Z"
41,0.5981274,0.29955566,0.7567383,352,"2023-02-04T02:29:24.206Z"
37,0.6001538,0.29996338,0.75412107,352,"2023-02-04T02:30:24.769Z"
38,0.60173094,0.3018408,0.7526294,352,"2023-02-04T02:31:25.331Z"
37,0.60410887,0.30270997,0.750188,352,"2023-02-04T02:32:25.893Z"
41,0.605188,0.3029883,0.7492578,352,"2023-02-04T02:33:26.463Z"
41,0.6063623,0.30316895,0.7468115,352,"2023-02-04T02:34:27.030Z"
37,0.60917234,0.30464354,0.74537355,352,"2023-02-04T02:35:27.592Z"
39,0.6099072,0.3057544,0.74417967,352,"2023-02-04T02:36:28.154Z"
38,0.6109375,0.3056421,0.7438379,352,"2023-02-04T02:37:28.717Z"
37,0.61137205,0.30568847,0.74308836,352,"2023-02-04T02:38:29.279Z"
35,0.61316407,0.30494142,0.741438,352,"2023-02-04T02:39:29.840Z"
36,0.6138818,0.3063672,0.74051267,352,"2023-02-04T02:40:30.403Z"
37,0.6153174,0.30729735,0.73983884,352,"2023-02-04T02:41:30.966Z"
40,0.61642337,0.3073413,0.7389209,352,"2023-02-04T02:42:31.528Z"
38,0.6161548,0.30812988,0.737273,352,"2023-02-04T02:43:32.090Z"
40,0.61746824,0.30785888,0.7366602,352,"2023-02-04T02:44:32.652Z"
39,0.6182324,0.30896974,0.737063,353,"2023-02-04T02:45:33.214Z"
39,0.61787844,0.30899903,0.7361597,353,"2023-02-04T02:46:33.777Z"
69,0.62271,-0.34606445,0.7247388,353,"2023-02-04T02:47:34.339Z"
43,0.62041503,-0.3438281,0.72844726,352,"2023-02-04T02:48:34.901Z"
44,0.6219873,-0.3447632,0.7254956,352,"2023-02-04T02:49:35.463Z"
36,0.6199878,-0.34169677,0.72927004,352,"2023-02-04T02:50:36.025Z"
41,0.5906299,-0.57358885,0.5995093,352,"2023-02-04T02:51:36.588Z"
38,0.5809741,-0.5385352,0.6399414,352,"2023-02-04T02:52:37.158Z"
39,0.5826904,-0.53689694,0.6397436,353,"2023-02-04T02:53:37.725Z"
42,0.5831152,-0.53114504,0.6445606,352,"2023-02-04T02:54:38.287Z"
39,0.58296144,-0.530332,0.6452832,352,"2023-02-04T02:55:38.849Z"
40,0.58249265,-0.53010255,0.6453247,352,"2023-02-04T02:56:39.411Z"
41,0.5817798,-0.5289062,0.64665526,352,"2023-02-04T02:57:39.974Z"
50,0.5216626,0.055205077,0.8339209,351,"2023-02-04T02:58:40.536Z"
42,0.47987062,0.33817872,0.8169727,351,"2023-02-04T02:59:41.097Z"
43,0.47889405,0.33698732,0.81821287,351,"2023-02-04T03:00:41.660Z"
48,0.47976807,0.34046876,0.81621826,351,"2023-02-04T03:01:42.223Z"
42,0.47915283,0.33913574,0.8173169,352,"2023-02-04T03:02:42.785Z"
47,0.48083252,0.34596193,0.8130542,352,"2023-02-04T03:03:43.347Z"
47,0.47915772,0.34084472,0.8166797,352,"2023-02-04T03:04:43.909Z"
48,0.4778833,0.33755127,0.81860596,352,"2023-02-04T03:05:44.471Z"
38,0.4781006,0.3414209,0.8161938,352,"2023-02-04T03:06:45.034Z"
44,0.47696045,0.33847657,0.8191724,352,"2023-02-04T03:07:45.596Z"
43,-0.09057373,-0.49324462,0.8564209,352,"2023-02-04T03:08:46.158Z"
37,0.66830325,0.050410155,0.7599048,352,"2023-02-04T03:09:46.720Z"
43,0.67133546,0.07387207,0.7559888,352,"2023-02-04T03:10:47.282Z"
41,0.6709546,0.073098145,0.7559082,352,"2023-02-04T03:11:47.853Z"
42,0.6710693,0.07299805,0.7562305,352,"2023-02-04T03:12:48.419Z"
40,0.672666,0.051499024,0.756228,352,"2023-02-04T03:13:48.982Z"
41,0.67104006,0.059545897,0.757312,352,"2023-02-04T03:14:49.544Z"
41,0.6713794,0.05822754,0.7570532,352,"2023-02-04T03:15:50.106Z"
42,0.6704492,0.05979248,0.7582251,353,"2023-02-04T03:16:50.668Z"
43,0.6689331,0.051665038,0.75937253,352,"2023-02-04T03:17:51.231Z"
61,0.6033154,0.07018066,0.808042,353,"2023-02-04T03:18:51.793Z"
41,0.60254884,0.071926266,0.8095386,353,"2023-02-04T03:19:52.355Z"
40,0.60250735,0.07344971,0.80924803,353,"2023-02-04T03:20:52.917Z"
43,0.60257566,0.07051758,0.8093603,353,"2023-02-04T03:21:53.479Z"
44,0.60165524,0.073601075,0.80993164,353,"2023-02-04T03:22:54.042Z"
45,0.6025293,0.07236084,0.80924314,353,"2023-02-04T03:23:54.604Z"
42,0.60080075,0.073188476,0.8099292,353,"2023-02-04T03:24:55.166Z"
44,0.60238284,0.07077881,0.80958986,353,"2023-02-04T03:25:55.729Z"
42,0.60192627,0.07372559,0.8098218,353,"2023-02-04T03:26:56.291Z"
41,0.6019067,0.07107666,0.8096069,354,"2023-02-04T03:27:56.853Z"
41,0.60196775,0.07105957,0.80942625,354,"2023-02-04T03:28:57.415Z"
42,0.6008252,0.073342286,0.8105273,354,"2023-02-04T03:29:57.977Z"
43,0.600813,0.07290039,0.8102002,354,"2023-02-04T03:30:58.540Z"
40,0.60073,0.07296631,0.8101392,354,"2023-02-04T03:31:59.114Z"
45,0.6008472,0.07301025,0.8099829,354,"2023-02-04T03:32:59.677Z"
43,0.60079104,0.07283691,0.80994874,354,"2023-02-04T03:34:00.239Z"
67,0.39520508,-0.94064695,0.06354004,352,"2023-02-04T03:35:00.801Z"
44,0.40331298,-0.937915,0.05805664,348,"2023-02-04T03:36:01.363Z"
48,0.40285644,-0.93759036,0.05517334,345,"2023-02-04T03:37:01.926Z"
49,0.45603028,0.50651854,0.7378491,343,"2023-02-04T03:38:02.488Z"
42,0.46049803,0.5023438,0.7372143,344,"2023-02-04T03:39:03.050Z"
47,0.42675537,0.10280273,0.8823755,345,"2023-02-04T03:40:03.612Z"
44,0.4266089,-0.88464844,0.2779053,343,"2023-02-04T03:41:04.174Z"
41,0.4293408,-0.88271487,0.28116456,344,"2023-02-04T03:42:04.737Z"
44,0.42936525,-0.8824146,0.282854,344,"2023-02-04T03:43:05.299Z"
43,0.4292676,-0.8814893,0.28514403,345,"2023-02-04T03:44:05.861Z"
42,0.43052733,-0.8807007,0.28612548,346,"2023-02-04T03:45:06.423Z"
42,0.4307739,-0.8805591,0.2869922,346,"2023-02-04T03:46:06.986Z"
41,0.43084472,-0.8800171,0.2883081,347,"2023-02-04T03:47:07.548Z"
39,0.43101805,-0.8797852,0.28907472,347,"2023-02-04T03:48:08.110Z"
43,0.43084228,-0.8799365,0.2892993,348,"2023-02-04T03:49:08.672Z"
44,0.43134034,-0.8798608,0.28984863,348,"2023-02-04T03:50:09.235Z"
42,0.43104735,-0.8800073,0.2900171,349,"2023-02-04T03:51:09.809Z"
44,0.43233886,-0.878457,0.29312745,349,"2023-02-04T03:52:10.371Z"
45,0.43424806,-0.87598634,0.2973291,349,"2023-02-04T03:53:10.934Z"
43,0.43373534,-0.8757593,0.2968335,349,"2023-02-04T03:54:11.496Z"
44,0.43398437,-0.87552243,0.29799315,350,"2023-02-04T03:55:12.058Z"
44,0.43251953,-0.87595946,0.29862306,350,"2023-02-04T03:56:12.620Z"
44,0.4327417,-0.875625,0.29934326,350,"2023-02-04T03:57:13.183Z"
43,0.43282226,-0.8751953,0.29916748,350,"2023-02-04T03:58:13.745Z"
40,0.433125,-0.8756177,0.29953858,350,"2023-02-04T03:59:14.307Z"
45,0.43282226,-0.8752319,0.30007812,350,"2023-02-04T04:00:14.869Z"
42,0.43304443,-0.8748047,0.3009912,351,"2023-02-04T04:01:15.431Z"
42,0.43358642,-0.87447757,0.30208007,351,"2023-02-04T04:02:15.994Z"
43,0.43333495,-0.8746631,0.3020581,351,"2023-02-04T04:03:16.556Z"
44,0.43321776,-0.8740869,0.30244628,351,"2023-02-04T04:04:17.118Z"
40,0.43296143,-0.87490964,0.30152833,351,"2023-02-04T04:05:17.680Z"
44,0.43331298,-0.87485105,0.30116212,351,"2023-02-04T04:06:18.243Z"
43,0.4328296,-0.8750708,0.30181396,351,"2023-02-04T04:07:18.805Z"
46,0.43272704,-0.87433106,0.30164063,351,"2023-02-04T04:08:19.367Z"
44,0.4324756,-0.8744336,0.30244142,351,"2023-02-04T04:09:19.929Z"
44,0.43269044,-0.8742993,0.30237794,352,"2023-02-04T04:10:20.503Z"
41,0.43277344,-0.8740576,0.3028589,351,"2023-02-04T04:11:21.065Z"
41,0.43333983,-0.87347656,0.30377686,351,"2023-02-04T04:12:21.628Z"
41,0.43299562,-0.8739673,0.30332276,351,"2023-02-04T04:13:22.190Z"
43,0.43314698,-0.8735254,0.30358887,351,"2023-02-04T04:14:22.752Z"
41,0.4332007,-0.87388426,0.3036499,351,"2023-02-04T04:15:23.314Z"
40,0.43279052,-0.87432617,0.30309814,351,"2023-02-04T04:16:23.877Z"
42,0.43284425,-0.8740039,0.30411622,351,"2023-02-04T04:17:24.439Z"
42,0.432876,-0.8740259,0.3044507,351,"2023-02-04T04:18:25.001Z"
42,0.43228027,-0.8736768,0.30436036,351,"2023-02-04T04:19:25.563Z"
44,0.43220702,-0.8737915,0.30480468,352,"2023-02-04T04:20:26.125Z"
42,0.43287355,-0.87371826,0.3052661,352,"2023-02-04T04:21:26.688Z"
41,0.43243408,-0.8735742,0.30494872,352,"2023-02-04T04:22:27.250Z"
40,0.4332251,-0.8727881,0.30689454,352,"2023-02-04T04:23:27.812Z"
42,0.43301514,-0.8729297,0.30525148,352,"2023-02-04T04:24:28.375Z"
41,0.43304688,-0.87296873,0.3060376,352,"2023-02-04T04:25:28.937Z"
43,0.43270507,-0.87333983,0.3062036,352,"2023-02-04T04:26:29.499Z"
70,0.43938476,-0.8805493,0.27342284,351,"2023-02-04T04:27:30.061Z"
42,0.44195068,-0.8790454,0.27574217,346,"2023-02-04T04:28:30.623Z"
42,0.5002319,0.34842774,0.799751,346,"2023-02-04T04:29:31.198Z"
70,0.28003663,-0.9804785,-0.02591797,344,"2023-02-04T04:30:31.760Z"
47,0.28242674,-0.979707,-0.02111084,342,"2023-02-04T04:31:32.323Z"
45,0.28358886,-0.9796289,-0.02048584,342,"2023-02-04T04:32:32.885Z"
47,0.53294677,-0.7717749,-0.4187622,343,"2023-02-04T04:33:33.447Z"
41,0.5941309,-0.2650586,0.77803713,343,"2023-02-04T04:34:34.009Z"
48,0.59904784,-0.2574292,0.7770996,345,"2023-02-04T04:35:34.572Z"
47,0.5998145,-0.25327393,0.7777979,346,"2023-02-04T04:36:35.134Z"
47,0.59813476,-0.25264403,0.779751,347,"2023-02-04T04:37:35.696Z"
47,0.6086157,-0.24762207,0.77316403,348,"2023-02-04T04:38:36.258Z"
44,0.6071704,-0.2454419,0.77496827,349,"2023-02-04T04:39:36.820Z"
51,0.60119873,-0.24599853,0.7800562,350,"2023-02-04T04:40:37.383Z"
44,0.6038867,-0.24447021,0.77871096,350,"2023-02-04T04:41:37.945Z"
44,0.60446286,-0.24323486,0.7780615,351,"2023-02-04T04:42:38.507Z"
48,0.60222656,-0.24371827,0.78032714,351,"2023-02-04T04:43:39.069Z"
52,0.60177004,-0.24026123,0.78226316,352,"2023-02-04T04:44:39.632Z"
50,0.60209715,-0.23977295,0.7819531,352,"2023-02-04T04:45:40.194Z"
45,0.601499,-0.2393457,0.78167725,353,"2023-02-04T04:46:40.756Z"
70,0.33391112,-0.921853,0.2811499,353,"2023-02-04T04:47:41.318Z"
43,0.33434325,-0.9317676,0.24791016,353,"2023-02-04T04:48:41.893Z"
44,0.3357788,-0.93170166,0.24760742,352,"2023-02-04T04:49:42.455Z"
45,0.33601075,-0.9312378,0.24832764,352,"2023-02-04T04:50:43.017Z"
43,0.43782714,0.027214356,0.9076758,351,"2023-02-04T04:51:43.580Z"
49,0.43456054,0.026794434,0.9092114,350,"2023-02-04T04:52:44.142Z"
51,0.43450195,0.032324217,0.9086279,349,"2023-02-04T04:53:44.704Z"
47,0.43089113,0.029406738,0.9096704,348,"2023-02-04T04:54:45.266Z"
48,0.43372804,0.037199706,0.90873533,348,"2023-02-04T04:55:45.829Z"
48,0.42904297,0.02994629,0.9113867,347,"2023-02-04T04:56:46.391Z"
40,0.42826903,0.03019043,0.9119336,347,"2023-02-04T04:57:46.953Z"
43,0.42943358,0.03857178,0.9104224,347,"2023-02-04T04:58:47.515Z"
45,0.42687255,0.031430665,0.91258055,347,"2023-02-04T04:59:48.077Z"
44,0.42710695,0.032819822,0.9123706,347,"2023-02-04T05:00:48.640Z"
38,0.0046484377,-1.0147583,-0.0028295899,344,"2023-02-04T05:01:49.202Z"
46,0.0038598634,-1.0144213,-0.0063989256,341,"2023-02-04T05:02:49.749Z"
43,0.004489746,-1.0147388,-0.007580566,339,"2023-02-04T05:03:50.312Z"
47,0.003449707,-1.0154566,-0.008615723,337,"2023-02-04T05:04:50.874Z"
47,0.0032617187,-1.015083,-0.009868164,336,"2023-02-04T05:05:51.436Z"
49,0.0029370117,-1.0144726,-0.0134887695,336,"2023-02-04T05:06:51.998Z"
50,0.0033300782,-1.014751,-0.013864746,336,"2023-02-04T05:07:52.573Z"
44,0.0033154297,-1.0152246,-0.014267578,336,"2023-02-04T05:08:53.135Z"
46,0.0025073243,-1.0148706,-0.015134278,335,"2023-02-04T05:09:53.697Z"
49,0.0028515626,-1.0148658,-0.014716797,336,"2023-02-04T05:10:54.260Z"
53,0.0020507812,-1.0151465,-0.015256348,336,"2023-02-04T05:11:54.822Z"
49,0.014748535,-0.9936792,-0.20455322,336,"2023-02-04T05:12:55.384Z"
41,-0.026623536,-0.93475586,-0.39676514,333,"2023-02-04T05:13:55.946Z"
42,-0.025397949,-0.93397707,-0.3981421,332,"2023-02-04T05:14:56.509Z"
43,-0.02690918,-0.9354785,-0.3953589,330,"2023-02-04T05:15:57.071Z"
44,-0.025861816,-0.9343115,-0.39704835,328,"2023-02-04T05:16:57.633Z"
43,0.5025879,0.14969726,0.8593872,330,"2023-02-04T05:17:58.195Z"
46,0.50197023,0.16182618,0.85709715,332,"2023-02-04T05:18:58.758Z"
43,0.50115967,0.16921875,0.8566601,335,"2023-02-04T05:19:59.320Z"
41,0.49968016,0.17164062,0.857644,336,"2023-02-04T05:20:59.882Z"
57,0.51653564,0.22413574,0.8350977,341,"2023-02-04T05:22:00.444Z"
44,0.5097046,0.18578857,0.84894776,343,"2023-02-04T05:23:01.006Z"
55,0.60283446,-0.24660401,0.7783789,344,"2023-02-04T05:24:01.569Z"
41,0.59542966,-0.2512207,0.7816211,344,"2023-02-04T05:25:02.131Z"
45,0.5989429,-0.28635743,0.767605,346,"2023-02-04T05:26:02.693Z"
42,0.5950781,-0.2694873,0.77640134,348,"2023-02-04T05:27:03.268Z"
41,0.59453857,-0.26858154,0.77747315,348,"2023-02-04T05:28:03.830Z"
69,-0.5309814,-0.0066967774,0.8277441,349,"2023-02-04T05:29:04.392Z"
41,-0.5234692,-0.0080664065,0.8351636,350,"2023-02-04T05:30:04.954Z"
35,-0.49785888,0.5477148,-0.6646265,349,"2023-02-04T05:31:05.517Z"
43,-0.4957544,0.5631201,-0.6537671,349,"2023-02-04T05:32:06.079Z"
41,-0.49161378,0.5684741,-0.65249515,349,"2023-02-04T05:33:06.641Z"
38,-0.49726808,0.55883056,-0.65460205,349,"2023-02-04T05:34:07.204Z"
61,0.54722166,-0.14202392,0.7575757,349,"2023-02-04T05:35:07.766Z"
79,-0.25105712,0.9097656,0.14272705,346,"2023-02-04T05:36:08.328Z"
82,-0.020842286,0.58675784,-0.8181348,340,"2023-02-04T05:37:08.890Z"
61,0.90045166,0.10847412,0.42868897,335,"2023-02-04T05:38:09.452Z"
66,-0.4172998,0.7634473,0.25636962,330,"2023-02-04T05:39:10.015Z"
72,-0.8062842,0.47003418,-0.09040039,324,"2023-02-04T05:40:10.577Z"
74,-0.038166504,0.9932373,0.024262695,321,"2023-02-04T05:41:11.139Z"
65,-0.5245337,0.8411621,-0.1505371,313,"2023-02-04T05:42:11.701Z"
82,0.77291507,0.021762695,0.46866456,316,"2023-02-04T05:43:12.264Z"
63,-0.6409106,0.16402832,0.72011966,321,"2023-02-04T05:44:12.826Z"
43,-0.63849366,0.16514893,0.7231274,325,"2023-02-04T05:45:13.388Z"
41,-0.63757324,0.16403809,0.72470945,328,"2023-02-04T05:46:13.950Z"
38,-0.63759035,0.16410644,0.7257764,331,"2023-02-04T05:47:14.513Z"
38,-0.6415552,0.15830079,0.72313476,334,"2023-02-04T05:48:15.075Z"
46,-0.6400806,0.15483643,0.7262012,336,"2023-02-04T05:49:15.637Z"
44,-0.6374487,0.16170166,0.7270996,338,"2023-02-04T05:50:16.199Z"
43,-0.63894534,0.16037598,0.725918,340,"2023-02-04T05:51:16.762Z"
43,-0.6381128,0.1636084,0.72621584,341,"2023-02-04T05:52:17.324Z"
49,-0.33748046,0.02709961,0.9288965,343,"2023-02-04T05:53:17.886Z"
38,-0.32088378,0.034641113,0.93508303,344,"2023-02-04T05:54:18.448Z"
46,-0.32333007,0.021113282,0.9351123,345,"2023-02-04T05:55:19.010Z"
45,-0.32410645,0.023603516,0.93395996,346,"2023-02-04T05:56:19.573Z"
47,-0.31959474,0.012670899,0.9362036,347,"2023-02-04T05:57:20.135Z"
42,-0.31633055,0.0063989256,0.9372583,348,"2023-02-04T05:58:20.697Z"
41,-0.31307617,0.020825196,0.9380371,348,"2023-02-04T05:59:21.260Z"
43,-0.31373537,0.053947754,0.9365918,349,"2023-02-04T06:00:21.822Z"
41,-0.30980223,0.05532959,0.9374951,349,"2023-02-04T06:01:22.369Z"
40,-0.30983397,0.05506592,0.9375098,349,"2023-02-04T06:02:22.931Z"
41,-0.31108397,0.03942627,0.9374683,350,"2023-02-04T06:03:23.493Z"
42,-0.31326172,0.038359374,0.93662596,350,"2023-02-04T06:04:24.055Z"
37,-0.3082495,0.034604494,0.9384155,350,"2023-02-04T06:05:24.618Z"
41,-0.34865722,-0.043342285,0.92460936,350,"2023-02-04T06:06:25.180Z"
41,-0.35128906,-0.044609375,0.9235889,350,"2023-02-04T06:07:25.742Z"
38,-0.35237303,-0.049714357,0.9224219,351,"2023-02-04T06:08:26.305Z"
40,-0.3521289,-0.05050537,0.92263675,351,"2023-02-04T06:09:26.867Z"
43,-0.3509082,-0.050080568,0.9233105,351,"2023-02-04T06:10:27.429Z"
38,-0.35284913,-0.050839845,0.9223755,351,"2023-02-04T06:11:27.991Z"
39,-0.3527417,-0.051230468,0.922312,352,"2023-02-04T06:12:28.553Z"
43,-0.35641113,-0.04848877,0.92141116,351,"2023-02-04T06:13:29.116Z"
45,-0.35757568,-0.061865233,0.9194458,352,"2023-02-04T06:14:29.677Z"
62,-0.6481323,0.011767578,0.7376929,352,"2023-02-04T06:15:30.240Z"
40,-0.6506641,0.008874511,0.73519534,352,"2023-02-04T06:16:30.802Z"
40,-0.6483032,0.0071777343,0.73759764,352,"2023-02-04T06:17:31.377Z"
36,-0.64900637,0.0033007814,0.7371533,352,"2023-02-04T06:18:31.939Z"
38,-0.6488672,-0.013500976,0.73776364,353,"2023-02-04T06:19:32.501Z"
40,-0.64708984,-0.013891602,0.7392798,353,"2023-02-04T06:20:33.064Z"
37,-0.6494165,-0.014296875,0.73713136,353,"2023-02-04T06:21:33.626Z"
42,-0.64738035,-0.014951172,0.73911375,353,"2023-02-04T06:22:34.188Z"
40,-0.6480029,-0.015029297,0.7389551,353,"2023-02-04T06:23:34.750Z"
55,-0.66563964,-0.16051026,0.707124,353,"2023-02-04T06:24:35.312Z"
37,-0.6728833,-0.17665772,0.6969678,353,"2023-02-04T06:25:35.875Z"
41,-0.6758276,-0.17913085,0.6935815,353,"2023-02-04T06:26:36.437Z"
36,-0.6761597,-0.1818164,0.69121337,352,"2023-02-04T06:27:36.999Z"
39,-0.67352295,-0.18151855,0.6950537,352,"2023-02-04T06:28:37.562Z"
42,-0.67281985,-0.19602294,0.6912476,352,"2023-02-04T06:29:38.124Z"
41,-0.6747534,-0.19885743,0.68894774,352,"2023-02-04T06:30:38.686Z"
39,-0.6738623,-0.199021,0.68979,352,"2023-02-04T06:31:39.248Z"
62,-0.6291016,0.081308596,0.75031984,352,"2023-02-04T06:32:39.811Z"
56,-0.5662036,0.58227295,-0.57062745,352,"2023-02-04T06:33:40.373Z"
38,-0.5773779,0.59439695,-0.5452026,349,"2023-02-04T06:34:40.935Z"
48,-0.574646,0.5923706,-0.5496655,348,"2023-02-04T06:35:41.497Z"
43,-0.5703784,0.61456054,-0.5296948,348,"2023-02-04T06:36:42.072Z"
50,-0.5554565,0.69035155,0.42305663,347,"2023-02-04T06:37:42.634Z"
42,-0.56524414,0.6735034,0.43583253,348,"2023-02-04T06:38:43.196Z"
76,-0.29820555,0.8764893,0.30150145,347,"2023-02-04T06:39:43.759Z"
84,-0.9748682,0.2683838,-0.25668946,344,"2023-02-04T06:40:44.321Z"
79,-0.4161621,0.64266115,0.61620116,341,"2023-02-04T06:41:44.883Z"
67,0.13476318,0.7575586,0.6121509,338,"2023-02-04T06:42:45.445Z"
68,0.30166015,0.8484326,0.41871095,336,"2023-02-04T06:43:46.008Z"
74,0.26908693,0.73817384,0.6148999,334,"2023-02-04T06:44:46.570Z"
74,0.5118677,0.58740723,-0.6454688,331,"2023-02-04T06:45:47.132Z"
64,0.27422607,0.6597192,0.676333,328,"2023-02-04T06:46:47.694Z"
71,0.12051758,0.4394702,0.88266844,327,"2023-02-04T06:47:48.257Z"
65,0.3549878,0.8293359,0.43039307,325,"2023-02-04T06:48:48.819Z"
61,0.3300073,0.6552222,0.6732031,324,"2023-02-04T06:49:49.381Z"
73,0.39064452,0.7650171,0.5061743,323,"2023-02-04T06:50:49.943Z"
68,0.26045167,0.9513233,0.16914062,322,"2023-02-04T06:51:50.506Z"
79,-0.37450927,-0.052810058,0.8461792,321,"2023-02-04T06:52:51.068Z"
97,-0.075107425,-0.44652832,0.8727295,318,"2023-02-04T06:53:51.630Z"
98,0.14154053,0.9650244,0.06546631,319,"2023-02-04T06:54:52.192Z"
83,0.062072754,0.8238452,0.5379077,319,"2023-02-04T06:55:52.755Z"
72,0.6848267,0.43213868,0.58875,315,"2023-02-04T06:56:53.317Z"
61,0.1831836,0.8554297,0.47795165,314,"2023-02-04T06:57:53.879Z"
75,0.44945556,0.8925342,-0.07251221,314,"2023-02-04T06:58:54.441Z"
72,0.67623293,0.16203369,0.73448485,313,"2023-02-04T06:59:55.004Z"
70,0.06376221,0.8423633,0.52569824,312,"2023-02-04T07:00:55.566Z"
73,0.3426636,0.8902368,0.3184253,312,"2023-02-04T07:01:56.128Z"
72,0.17259033,0.7367749,0.6214917,311,"2023-02-04T07:02:56.690Z"
76,0.24175292,0.84648925,-0.49036378,311,"2023-02-04T07:03:57.253Z"
71,0.25624266,0.7544214,0.5781152,309,"2023-02-04T07:04:57.814Z"
81,-0.048395995,0.75128174,0.57593995,310,"2023-02-04T07:05:58.377Z"
63,-0.19775635,0.9310278,0.08116699,310,"2023-02-04T07:06:58.939Z"
70,-0.15760987,0.634187,0.7415112,310,"2023-02-04T07:07:59.502Z"
62,0.11972656,0.9227417,-0.39795166,309,"2023-02-04T07:09:00.064Z"
57,0.136521,0.8925024,-0.4412207,309,"2023-02-04T07:10:00.626Z"
52,0.1373462,0.92489016,-0.36205077,309,"2023-02-04T07:11:01.188Z"
76,-0.46701172,0.8666333,0.010063477,308,"2023-02-04T07:12:01.751Z"
78,-0.3598535,0.86120605,-0.20674317,308,"2023-02-04T07:13:02.313Z"
62,0.14019042,0.83660156,-0.5385083,307,"2023-02-04T07:14:02.875Z"
66,0.13700928,0.8326831,-0.5450293,306,"2023-02-04T07:15:03.438Z"
60,-0.528772,0.7193994,0.29704103,266,"2023-02-04T07:26:01.925Z"
67,-0.27297607,0.7058838,-0.56819826,282,"2023-02-04T07:27:02.487Z"
80,-0.059814453,0.9061475,0.3458545,285,"2023-02-04T07:28:03.049Z"
83,0.17021972,0.7582324,0.620918,287,"2023-02-04T07:29:03.612Z"
78,-0.09088867,0.9515601,0.25931397,289,"2023-02-04T07:30:04.174Z"
68,-0.03397705,0.9611255,0.23949707,290,"2023-02-04T07:31:04.736Z"
72,-0.020729981,0.9758252,0.19023193,290,"2023-02-04T07:32:05.298Z"
80,0.18614747,0.7971606,0.572395,289,"2023-02-04T07:33:05.861Z"
81,-0.05512451,0.9506128,0.28243163,290,"2023-02-04T07:34:06.423Z"
75,0.1905664,0.91083497,0.18572754,290,"2023-02-04T07:35:06.969Z"
67,-0.04852539,0.95716554,0.25809082,291,"2023-02-04T07:36:07.532Z"
68,-0.046137694,0.9483716,0.2849121,291,"2023-02-04T07:37:08.094Z"
76,-0.8302978,0.5075415,0.14700684,291,"2023-02-04T07:38:08.656Z"
79,0.2282666,0.9554199,-0.20660645,291,"2023-02-04T07:39:09.219Z"
81,-0.9009106,0.53366697,-0.045339357,289,"2023-02-04T07:40:09.781Z"
81,0.07762695,0.70343506,-0.61934817,289,"2023-02-04T07:41:10.343Z"
84,0.9142456,0.36933106,0.23837402,288,"2023-02-04T07:42:10.906Z"
98,-0.8650537,0.39913818,-0.2869092,288,"2023-02-04T07:43:11.468Z"
88,-0.8284155,0.47274658,-0.3239502,288,"2023-02-04T07:44:12.030Z"
79,-0.3976367,0.7479297,-0.5074536,288,"2023-02-04T07:45:12.592Z"
80,-0.6707031,0.7091528,0.1875708,288,"2023-02-04T07:46:13.155Z"
82,0.11475342,0.76288575,0.6334619,288,"2023-02-04T07:47:13.717Z"
72,-0.5619946,0.63253665,-0.48302,288,"2023-02-04T07:48:14.279Z"
54,-0.9377539,0.21402831,0.2242505,290,"2023-02-04T07:49:14.842Z"
73,0.79000974,0.04603027,0.5560498,288,"2023-02-04T07:50:15.404Z"
81,-0.45454347,0.87290525,-0.09192139,287,"2023-02-04T07:51:15.966Z"
80,-0.3727124,0.7689575,0.40546632,287,"2023-02-04T07:52:16.528Z"
91,0.09848145,0.99306154,0.017358398,288,"2023-02-04T07:53:17.091Z"
108,-0.79354495,0.386875,0.40331054,284,"2023-02-04T07:54:17.653Z"
108,-0.72756106,0.4416455,0.502085,278,"2023-02-04T07:55:18.215Z"
78,-0.72313964,0.335979,0.5669458,272,"2023-02-04T07:56:18.778Z"
109,-0.7223291,0.070029296,0.6047925,265,"2023-02-04T07:57:19.340Z"
105,-0.61026365,0.56712645,0.506228,257,"2023-02-04T07:58:19.902Z"
95,-0.03010254,0.9145361,-0.25425538,253,"2023-02-04T07:59:20.464Z"
101,-0.45969728,0.7959546,-0.26082763,255,"2023-02-04T08:00:21.027Z"
101,-0.8983569,0.33860353,-0.33579102,257,"2023-02-04T08:01:21.589Z"
97,-0.8246338,0.2784668,0.4445923,259,"2023-02-04T08:02:22.151Z"
94,0.4585156,0.7244336,0.028032226,262,"2023-02-04T08:03:22.714Z"
100,0.9896289,0.26186278,-0.03509033,264,"2023-02-04T08:04:23.276Z"
85,-0.7172217,0.28947508,-0.5866528,266,"2023-02-04T08:05:23.838Z"
57,-0.9743848,0.22156738,-0.071586914,266,"2023-02-04T08:06:24.401Z"
69,0.59591067,0.25628418,0.17932129,268,"2023-02-04T08:07:24.963Z"
102,0.8981665,0.38640136,0.31595948,270,"2023-02-04T08:08:25.525Z"
101,-0.9503125,0.051970214,0.23736817,267,"2023-02-04T08:09:26.087Z"
95,-0.71541995,0.67085207,-0.025839843,265,"2023-02-04T08:10:26.650Z"
96,0.7837012,0.2534375,0.24903077,264,"2023-02-04T08:11:27.212Z"
97,0.83183837,0.23095703,-0.4365332,263,"2023-02-04T08:12:27.774Z"
66,0.26944825,0.3083301,0.8985718,263,"2023-02-04T08:13:28.337Z"
88,-0.92981935,0.27860108,0.031645507,263,"2023-02-04T08:14:28.899Z"
90,0.16052735,0.852041,0.3644458,259,"2023-02-04T08:15:29.461Z"
93,-0.07754883,0.70357424,-0.6806494,263,"2023-02-04T08:16:30.024Z"
79,-0.020986328,0.12959962,0.9834717,272,"2023-02-04T08:17:30.586Z"
90,-0.93059325,0.20514649,0.09281006,271,"2023-02-04T08:18:31.148Z"
99,-0.09761963,0.7965967,-0.6025464,270,"2023-02-04T08:19:31.710Z"
82,0.28974855,0.74225587,-0.6194946,270,"2023-02-04T08:20:32.257Z"
82,0.07197998,0.34173095,0.931604,271,"2023-02-04T08:21:32.820Z"
94,-0.3452881,0.4991797,0.76072264,272,"2023-02-04T08:22:33.382Z"
95,-0.8665698,0.5565161,0.10385742,270,"2023-02-04T08:23:33.944Z"
95,0.81900144,-0.10062012,0.57383543,269,"2023-02-04T08:24:34.492Z"
87,0.5387451,0.3886035,0.7519165,272,"2023-02-04T08:25:35.039Z"
89,-0.5646582,0.44278076,0.6253247,271,"2023-02-04T08:26:35.601Z"
102,-0.888645,0.43396485,-0.12737304,271,"2023-02-04T08:27:36.164Z"
91,-0.8506763,0.43138915,0.020964356,273,"2023-02-04T08:28:36.726Z"
89,0.80248046,0.39144775,0.49648926,273,"2023-02-04T08:29:37.288Z"
93,-0.7637329,0.36404297,0.44311768,274,"2023-02-04T08:30:37.851Z"
92,-0.6560962,0.70992434,-0.16004394,272,"2023-02-04T08:31:38.413Z"
116,-0.3251465,0.91000974,-0.19149902,272,"2023-02-04T08:32:38.975Z"
116,0.6341455,0.41222656,0.2540088,269,"2023-02-04T08:33:39.537Z"
129,0.3444165,0.47566164,0.29381347,271,"2023-02-04T08:34:40.100Z"
123,0.90496826,0.08308105,0.25653076,273,"2023-02-04T08:35:40.662Z"
134,0.8336475,0.53782225,0.20406982,277,"2023-02-04T08:36:41.224Z"
129,-0.27254394,0.55213624,-0.76431155,277,"2023-02-04T08:37:41.787Z"
126,-0.4179077,0.71969724,-0.48073974,272,"2023-02-04T08:38:42.349Z"
113,-0.3465039,0.7277515,-0.60050535,273,"2023-02-04T08:39:42.911Z"
116,0.5922583,0.6173657,0.40641603,275,"2023-02-04T08:40:43.473Z"
117,0.17665772,0.88834226,-0.436875,278,"2023-02-04T08:41:44.036Z"
103,-0.8227124,0.57066894,0.008762207,282,"2023-02-04T08:42:44.598Z"
108,-0.73700196,0.23364258,0.5878833,284,"2023-02-04T08:43:45.160Z"
111,-0.8017749,0.11665771,0.54580325,288,"2023-02-04T08:44:45.723Z"
114,-0.8602295,0.27739257,0.46225098,288,"2023-02-04T08:45:46.285Z"
119,-0.20779052,0.5626831,0.79226077,287,"2023-02-04T08:46:46.847Z"
108,1.0094092,-0.15666749,-0.04300049,286,"2023-02-04T08:47:47.409Z"
113,-0.6557397,0.7718091,-0.055773925,285,"2023-02-04T08:48:47.972Z"
92,0.21222413,0.40828124,0.82153565,287,"2023-02-04T08:49:48.519Z"
83,-0.7875244,0.5834692,0.018120117,289,"2023-02-04T08:50:49.081Z"
86,-0.00848877,0.81789553,-0.58405274,292,"2023-02-04T08:51:49.644Z"
97,-0.7154224,0.6128101,-0.15495361,291,"2023-02-04T08:52:50.206Z"
85,0.39869386,0.8906738,-0.294375,291,"2023-02-04T08:53:50.768Z"
86,0.08309326,0.9130737,0.13749756,290,"2023-02-04T08:54:51.331Z"
81,-0.0896875,0.9866235,0.15991944,290,"2023-02-04T08:55:51.893Z"
87,-0.08260742,0.77080566,0.56269777,287,"2023-02-04T08:56:52.455Z"
81,0.13283448,0.8125122,0.55328614,286,"2023-02-04T08:57:53.017Z"
78,-0.8489746,0.47533935,0.013845215,288,"2023-02-04T08:58:53.580Z"
77,-0.77466065,0.52134275,0.29434082,284,"2023-02-04T08:59:54.142Z"
73,0.20805664,0.8236841,-0.48178223,285,"2023-02-04T09:00:54.704Z"
74,-0.14766845,0.9480274,0.026833497,287,"2023-02-04T09:01:55.266Z"
74,-0.359104,0.8310034,0.34451905,288,"2023-02-04T09:02:55.829Z"
82,0.21563965,0.80229,0.04922363,290,"2023-02-04T09:03:56.391Z"
75,0.09032959,0.8794702,0.05680176,292,"2023-02-04T09:04:56.953Z"
75,-0.2608618,0.81045896,-0.37817138,294,"2023-02-04T09:05:57.516Z"
84,-0.27286622,0.90878415,0.3931714,294,"2023-02-04T09:06:58.078Z"
80,0.23541504,0.90395266,0.0012792968,295,"2023-02-04T09:07:58.640Z"
75,-0.53759277,0.7142383,0.26736328,296,"2023-02-04T09:08:59.202Z"
83,0.29875487,0.62403077,0.73597413,299,"2023-02-04T09:09:59.765Z"
75,0.35407227,0.44862062,0.8014404,302,"2023-02-04T09:11:00.327Z"
76,0.7554028,0.46992674,0.45509034,309,"2023-02-04T09:12:00.889Z"
72,-0.27456787,0.20040527,0.9462256,315,"2023-02-04T09:13:01.451Z"
72,0.13878661,0.35826904,0.91864747,319,"2023-02-04T09:14:02.014Z"
74,0.1876587,0.5364673,0.79911375,323,"2023-02-04T09:15:02.576Z"
72,0.30634767,0.6082715,0.703689,328,"2023-02-04T09:16:03.138Z"
73,0.4523877,0.56701416,0.68906736,335,"2023-02-04T09:17:03.700Z"
76,-0.14685547,0.65625244,0.72916013,340,"2023-02-04T09:18:04.263Z"
74,0.12064209,0.53803223,0.82570314,343,"2023-02-04T09:19:04.825Z"
72,0.30947998,0.5510571,0.7778296,346,"2023-02-04T09:20:05.387Z"
64,0.8636499,0.16916505,0.50858396,348,"2023-02-04T09:21:05.949Z"
68,0.12607422,0.9679956,-0.21800782,346,"2023-02-04T09:22:06.511Z"
67,0.06763428,0.806731,0.53681153,346,"2023-02-04T09:23:07.074Z"
69,-0.001965332,0.9931763,0.015388183,350,"2023-02-04T09:24:07.636Z"
75,0.12403076,0.9432471,-0.4330542,355,"2023-02-04T09:25:08.198Z"
83,0.23271729,0.78209716,-0.48633057,357,"2023-02-04T09:26:08.760Z"
66,-0.30692628,0.82804686,0.4511792,354,"2023-02-04T09:27:09.323Z"
74,-0.41396484,0.77568847,0.026184082,349,"2023-02-04T09:28:09.885Z"
79,-0.31062257,0.56539065,-0.25577882,344,"2023-02-04T09:29:10.447Z"
77,-0.39686525,0.8208447,-0.39554688,338,"2023-02-04T09:30:11.009Z"
75,-0.6764722,0.53672606,-0.48088622,333,"2023-02-04T09:31:11.572Z"
75,-0.58516115,0.6351074,0.33603272,329,"2023-02-04T09:32:12.134Z"
76,-0.21473633,0.7988208,-0.46959472,328,"2023-02-04T09:33:12.696Z"
86,-0.71249753,0.6796387,-0.09585449,323,"2023-02-04T09:34:13.258Z"
74,-0.21613282,0.8336133,0.5214966,319,"2023-02-04T09:35:13.821Z"
79,-0.46730956,0.7564722,0.44277588,320,"2023-02-04T09:36:14.383Z"
76,-0.1490918,0.957312,0.24869385,320,"2023-02-04T09:37:14.945Z"
80,-0.09112061,0.9793628,0.17712647,320,"2023-02-04T09:38:15.507Z"
75,-0.5551343,0.6051929,0.42499268,319,"2023-02-04T09:39:16.070Z"
77,-0.63696533,0.6528003,-0.03883545,316,"2023-02-04T09:40:16.632Z"
87,-0.71081054,0.56125,-0.27996826,317,"2023-02-04T09:41:17.194Z"
77,-0.2620166,0.82494384,0.48948,315,"2023-02-04T09:42:17.756Z"
81,-0.4455005,0.6669336,-0.5927588,316,"2023-02-04T09:43:18.319Z"
76,0.11366943,0.49642822,-0.852937,315,"2023-02-04T09:44:18.881Z"
87,-0.624043,0.5955884,0.43728516,314,"2023-02-04T09:45:19.443Z"
80,0.7977466,0.3496582,0.5109888,313,"2023-02-04T09:46:20.005Z"
77,-0.5492358,0.75753665,-0.39042968,313,"2023-02-04T09:47:20.568Z"
79,0.6998999,0.6602612,-0.3163843,313,"2023-02-04T09:48:21.129Z"
88,-0.0000390625,0.8981372,0.45777345,312,"2023-02-04T09:49:21.692Z"
76,-0.2679541,0.8720386,-0.24943115,311,"2023-02-04T09:50:22.254Z"
81,-0.57647705,0.81354004,-0.04005371,310,"2023-02-04T09:51:22.817Z"
80,-0.9652783,0.081386715,0.14571045,309,"2023-02-04T09:52:23.379Z"
78,-0.6198706,0.533313,0.24191895,308,"2023-02-04T09:53:23.941Z"
75,-0.5041089,0.8340576,0.043833006,306,"2023-02-04T09:54:24.503Z"
56,-0.55319333,0.8035107,0.07445312,304,"2023-02-04T09:55:25.066Z"
72,-0.18014649,0.88655275,-0.16290528,304,"2023-02-04T09:56:25.628Z"
75,0.70443845,0.46184325,0.36720946,304,"2023-02-04T09:57:26.190Z"
70,-0.71032715,0.631333,-0.15762451,304,"2023-02-04T09:58:26.752Z"
78,-0.6811011,0.56413084,0.072895505,302,"2023-02-04T09:59:27.315Z"
70,0.24248534,0.87476563,0.41293702,301,"2023-02-04T10:00:27.877Z"
74,-0.433645,0.7037964,-0.52892333,301,"2023-02-04T10:01:28.439Z"
76,-0.2859253,0.9299414,-0.22184081,301,"2023-02-04T10:02:29.001Z"
79,0.0072680665,0.9236816,-0.4779663,299,"2023-02-04T10:03:29.564Z"
83,0.7246753,0.35197997,0.40360597,298,"2023-02-04T10:04:30.126Z"
93,-0.78503907,0.53324705,-0.022719726,299,"2023-02-04T10:05:30.688Z"
91,-0.4354126,0.87180173,0.09568603,299,"2023-02-04T10:06:31.250Z"
86,-0.660354,0.71552736,0.1759253,297,"2023-02-04T10:07:31.813Z"
104,-0.26648194,0.4735669,-0.6942041,301,"2023-02-04T10:08:32.374Z"
104,0.15667969,0.82212156,-0.6135547,297,"2023-02-04T10:09:32.937Z"
102,-0.28755128,0.7011353,0.6095801,297,"2023-02-04T10:10:33.500Z"
101,0.31522706,0.9289917,-0.15088135,295,"2023-02-04T10:11:34.062Z"
100,-0.87376463,0.11198731,0.37749267,296,"2023-02-04T10:12:34.624Z"
87,-0.6123828,0.39222658,0.63852537,295,"2023-02-04T10:13:35.186Z"
77,0.03909912,0.9197705,-0.3929419,295,"2023-02-04T10:14:35.749Z"
75,-0.71424073,0.30012208,0.59832764,293,"2023-02-04T10:15:36.311Z"
77,-0.7062793,0.3211963,0.59718263,293,"2023-02-04T10:16:36.873Z"
90,-0.7907886,0.22256592,0.5433154,291,"2023-02-04T10:17:37.436Z"
73,-0.6708789,0.2763379,0.67102784,292,"2023-02-04T10:18:37.998Z"
82,-0.68030274,0.2640381,0.64078367,294,"2023-02-04T10:19:38.560Z"
81,-0.13070312,0.8490894,-0.2654419,295,"2023-02-04T10:20:39.122Z"
87,-0.6967578,0.23160157,0.6434961,292,"2023-02-04T10:21:39.685Z"
84,-0.7319653,0.37324464,0.53666747,291,"2023-02-04T10:22:40.247Z"
84,-0.43394044,0.6182959,0.6264917,286,"2023-02-04T10:23:40.809Z"
84,-0.43893066,0.5475854,0.6886011,285,"2023-02-04T10:24:41.371Z"
82,-0.94866455,0.47135985,-0.18626465,287,"2023-02-04T10:25:41.934Z"
83,0.66347903,0.6546924,-0.0804956,289,"2023-02-04T10:26:42.496Z"
74,0.24131592,0.80248046,-0.55796385,289,"2023-02-04T10:27:43.058Z"
80,-1.0327393,0.027565919,-0.047509767,287,"2023-02-04T10:28:43.621Z"
74,0.79652834,0.04437256,0.61314696,288,"2023-02-04T10:29:44.183Z"
51,-0.06851563,0.9602344,0.24196534,290,"2023-02-04T10:30:44.745Z"
69,0.52588135,0.7825195,-0.31884277,290,"2023-02-04T10:31:45.307Z"
56,0.36268798,0.9333667,0.038703613,289,"2023-02-04T10:32:45.870Z"
68,-0.04251709,1.0077906,-0.1639331,286,"2023-02-04T10:33:46.432Z"
68,0.4325586,0.78072023,0.4566626,283,"2023-02-04T10:34:46.994Z"
58,0.1728833,0.899834,0.39635497,284,"2023-02-04T10:35:47.556Z"
60,0.074072264,0.96670413,0.22462891,286,"2023-02-04T10:36:48.119Z"
73,0.16241455,0.91565675,0.37204835,290,"2023-02-04T10:37:48.681Z"
66,0.45669433,0.909187,-0.20018311,294,"2023-02-04T10:38:49.243Z"
62,0.69127196,0.7042432,-0.088515624,300,"2023-02-04T10:39:49.805Z"
78,0.3787207,0.9078955,0.21134034,304,"2023-02-04T10:40:50.368Z"
62,0.21579102,0.8997778,0.4645215,308,"2023-02-04T10:41:50.930Z"
59,0.47634766,0.70072263,0.5308521,313,"2023-02-04T10:42:51.492Z"
68,0.40716308,0.9159277,0.065688476,315,"2023-02-04T10:43:52.054Z"
75,0.12340576,0.5499707,0.7955469,316,"2023-02-04T10:44:52.617Z"
70,0.4056421,0.8584009,-0.33726805,319,"2023-02-04T10:45:53.179Z"
73,0.26065674,0.76644045,0.57437015,319,"2023-02-04T10:46:53.741Z"
79,0.28224123,0.6595239,0.63546634,319,"2023-02-04T10:47:54.303Z"
65,0.29536134,0.86892337,0.25052735,321,"2023-02-04T10:48:54.866Z"
72,-0.5067212,0.73139405,-0.039890137,321,"2023-02-04T10:49:55.428Z"
77,-0.2572534,0.72739255,0.61039305,321,"2023-02-04T10:50:55.990Z"
76,0.22406982,0.6783667,-0.7076587,321,"2023-02-04T10:51:56.552Z"
65,0.57080567,0.81445557,-0.03989502,321,"2023-02-04T10:52:57.115Z"
60,0.32481933,0.94555175,-0.0025927734,322,"2023-02-04T10:53:57.677Z"
62,0.015239257,0.9144067,-0.40519533,324,"2023-02-04T10:54:58.239Z"
64,0.56218505,0.7530176,0.3526001,327,"2023-02-04T10:55:58.802Z"
62,0.22252685,0.96778566,-0.09133789,327,"2023-02-04T10:56:59.364Z"
52,-0.043933105,0.9384912,-0.34166992,329,"2023-02-04T10:57:59.926Z"
62,0.18719482,0.9742407,-0.13426758,333,"2023-02-04T10:59:00.488Z"
60,-0.0071899416,0.9948975,-0.062941894,336,"2023-02-04T11:00:01.051Z"
72,0.5635474,0.82793945,-0.020761719,336,"2023-02-04T11:01:01.613Z"
60,0.07341309,0.81898195,0.5582617,337,"2023-02-04T11:02:02.175Z"
72,-0.20569336,0.8950977,-0.20785889,338,"2023-02-04T11:03:02.737Z"
84,0.87518555,0.34527344,0.31437257,336,"2023-02-04T11:04:03.299Z"
78,0.19865479,0.7812085,-0.2532715,332,"2023-02-04T11:05:03.862Z"
77,0.49937743,0.60980225,-0.63500977,329,"2023-02-04T11:06:04.424Z"
55,-0.040634766,0.976626,0.17727539,330,"2023-02-04T11:07:04.986Z"
76,0.28188232,0.88847655,0.37389892,332,"2023-02-04T11:08:05.548Z"
68,-0.05499756,0.8870215,-0.45331544,336,"2023-02-04T11:09:06.111Z"
57,0.23728271,0.93437743,-0.28058594,338,"2023-02-04T11:10:06.673Z"
62,0.20814209,0.95389646,-0.22364746,341,"2023-02-04T11:11:07.235Z"
63,0.3210669,0.9510669,0.020207519,343,"2023-02-04T11:12:07.797Z"
75,-0.5654834,0.7959131,0.04170166,343,"2023-02-04T11:13:08.360Z"
78,0.27286866,0.5127441,-0.8150073,344,"2023-02-04T11:14:08.922Z"
72,0.2996338,0.9177124,0.16050293,345,"2023-02-04T11:15:09.484Z"
68,0.3063037,0.94851804,-0.11422607,347,"2023-02-04T11:16:10.046Z"
84,0.3041504,0.8735474,-0.3246411,349,"2023-02-04T11:17:10.608Z"
72,0.025090331,0.95813966,0.26718506,352,"2023-02-04T11:18:11.171Z"
59,-0.0045532226,0.9533838,0.2806079,355,"2023-02-04T11:19:11.733Z"
61,0.036726072,0.97557616,0.19413085,359,"2023-02-04T11:20:12.295Z"
64,0.38792723,0.896394,0.23260254,363,"2023-02-04T11:21:12.857Z"
73,0.14429444,0.7768579,0.57729006,366,"2023-02-04T11:22:13.419Z"
72,0.14212403,0.9356226,0.30413574,370,"2023-02-04T11:23:13.982Z"
72,0.21350586,0.8260278,0.5388965,366,"2023-02-04T11:24:14.544Z"
59,0.122023925,0.9429785,0.13053222,363,"2023-02-04T11:25:15.106Z"
63,-0.00998291,0.92718995,0.3586255,361,"2023-02-04T11:26:15.668Z"
62,0.09607178,0.92359865,0.35982177,366,"2023-02-04T11:27:16.230Z"
66,-0.028164063,0.77145505,0.48035157,370,"2023-02-04T11:28:16.793Z"
71,0.18112305,0.92072266,0.34232423,371,"2023-02-04T11:29:17.355Z"
77,0.02256836,0.9031787,0.41885254,367,"2023-02-04T11:30:17.917Z"
78,0.057075195,0.8978955,0.4203125,365,"2023-02-04T11:31:18.479Z"
67,0.16856201,0.92464846,-0.34623536,364,"2023-02-04T11:32:19.042Z"
64,-0.000068359375,0.9566797,0.271709,363,"2023-02-04T11:33:19.604Z"
56,0.030478515,0.9629443,0.24888183,364,"2023-02-04T11:34:20.166Z"
52,0.1608203,0.98472166,0.06792725,367,"2023-02-04T11:35:20.728Z"
60,-0.0040234374,0.9452588,0.30780518,368,"2023-02-04T11:36:21.290Z"
67,0.043842774,0.9172461,0.38451415,370,"2023-02-04T11:37:21.853Z"
67,0.14871094,0.9305371,0.32598633,369,"2023-02-04T11:38:22.415Z"
69,0.3746533,0.7409253,-0.5981494,365,"2023-02-04T11:39:22.977Z"
74,0.09858887,0.7212939,0.67349124,362,"2023-02-04T11:40:23.539Z"
58,0.31305176,0.8983496,-0.29104492,359,"2023-02-04T11:41:24.101Z"
80,-0.45479247,0.71308595,-0.30990234,357,"2023-02-04T11:42:24.664Z"
80,-0.14475341,0.6055029,-0.7805884,354,"2023-02-04T11:43:25.226Z"
62,0.24741212,0.9483838,-0.1144458,350,"2023-02-04T11:44:25.788Z"
86,-0.3126123,0.87099123,-0.21526855,345,"2023-02-04T11:45:26.350Z"
81,-0.071523435,0.4836255,-0.8449268,342,"2023-02-04T11:46:26.912Z"
83,-0.7343384,0.61394286,-0.13482422,339,"2023-02-04T11:47:27.475Z"
87,-0.52058107,0.8250073,-0.07765381,338,"2023-02-04T11:48:28.037Z"
59,0.23836914,0.8172217,-0.5335669,337,"2023-02-04T11:49:28.599Z"
60,0.4926831,0.30250245,0.012856445,338,"2023-02-04T11:50:29.161Z"
65,-0.71935546,0.7162134,-0.2010083,338,"2023-02-04T11:51:29.724Z"
72,-0.95602053,0.4454468,0.0031201171,337,"2023-02-04T11:52:30.286Z"
73,-0.9395483,0.3651953,0.08774658,333,"2023-02-04T11:53:30.848Z"
92,-0.14533691,0.8818408,-0.086359866,328,"2023-02-04T11:54:31.410Z"
89,0.03406494,0.9514429,-0.117121585,328,"2023-02-04T11:55:31.973Z"
88,-1.0002148,0.18459716,0.17156982,328,"2023-02-04T11:56:32.535Z"
88,-0.8213501,0.5176416,0.051884767,346,"2023-02-04T11:57:33.096Z"
74,-0.9063379,0.3740698,0.05376709,362,"2023-02-04T11:58:33.658Z"
63,0.22310059,0.9743042,-0.050183106,368,"2023-02-04T11:59:34.221Z"
63,-0.1799707,0.74443847,0.5700586,366,"2023-02-04T12:00:34.783Z"
74,-0.7165552,0.19717285,0.62568605,371,"2023-02-04T12:01:35.345Z"
77,-0.7233862,0.5923828,0.2810132,376,"2023-02-04T12:02:35.907Z"
74,-0.7578613,0.080666505,0.6057178,375,"2023-02-04T12:03:36.469Z"
90,-0.73390627,0.14414306,0.610376,365,"2023-02-04T12:04:37.032Z"
76,-0.7099414,0.1520752,0.68266845,372,"2023-02-04T12:05:37.594Z"
78,-0.68719727,-0.12752442,0.6368555,374,"2023-02-04T12:06:38.156Z"
83,-0.746543,0.26035157,0.57201904,374,"2023-02-04T12:07:38.718Z"
80,-0.86322755,0.28261474,0.4551953,373,"2023-02-04T12:08:39.281Z"
66,-0.7115772,0.4622461,0.47759277,374,"2023-02-04T12:09:39.843Z"
75,-0.69817626,0.29785645,0.5749902,374,"2023-02-04T12:10:40.405Z"
76,-0.7236426,0.16806641,0.6444458,373,"2023-02-04T12:11:40.967Z"
73,-0.7274023,0.25496092,0.611709,354,"2023-02-04T12:12:41.530Z"
68,-0.7300781,0.21341065,0.61926514,344,"2023-02-04T12:13:42.092Z"
79,-0.73416257,0.2312915,0.606438,338,"2023-02-04T12:14:42.654Z"
99,-0.87798095,0.22008057,0.376062,331,"2023-02-04T12:15:43.217Z"
75,-0.72051024,0.1683667,0.648186,326,"2023-02-04T12:16:43.779Z"
75,-0.7388037,0.09006836,0.63357663,322,"2023-02-04T12:17:44.341Z"
84,-0.7392529,0.09165771,0.6305908,317,"2023-02-04T12:18:44.903Z"
72,-0.79209226,-0.1388208,0.54628664,315,"2023-02-04T12:19:45.466Z"
83,-0.76009035,0.105688475,0.5887549,311,"2023-02-04T12:20:46.028Z"
65,0.18334472,0.55082273,0.21911132,310,"2023-02-04T12:21:46.590Z"
76,-0.7191528,0.037509765,0.6482861,309,"2023-02-04T12:22:47.152Z"
70,-0.7173315,0.092580564,0.65566653,310,"2023-02-04T12:23:47.715Z"
72,-0.86464846,0.26443848,0.3728247,310,"2023-02-04T12:24:48.277Z"
76,-0.72713137,0.08875,0.6516675,310,"2023-02-04T12:25:48.839Z"
72,-0.7235669,0.29459962,0.5879102,311,"2023-02-04T12:26:49.402Z"
76,-0.7481958,0.052680664,0.6229907,311,"2023-02-04T12:27:49.964Z"
71,-0.75748044,0.06479004,0.6445239,310,"2023-02-04T12:28:50.526Z"
74,-0.7896094,0.021098632,0.55479735,312,"2023-02-04T12:29:51.088Z"
57,-0.06877197,0.9674756,0.20292725,312,"2023-02-04T12:30:51.651Z"
79,-0.721272,0.119055174,0.6651172,312,"2023-02-04T12:31:52.213Z"
71,-0.73154783,0.17816895,0.6050195,313,"2023-02-04T12:32:52.775Z"
74,-0.34332764,0.7099585,0.5736206,313,"2023-02-04T12:33:53.337Z"
78,-0.7003076,0.13877197,0.63644046,333,"2023-02-04T12:34:53.899Z"
73,-0.7312305,0.12041016,0.6332373,345,"2023-02-04T12:35:54.461Z"
73,-0.7359033,0.118068844,0.62997556,351,"2023-02-04T12:36:55.023Z"
75,-0.72850585,0.29175782,0.5906543,358,"2023-02-04T12:37:55.585Z"
71,-0.7439331,0.2515381,0.5761035,363,"2023-02-04T12:38:56.148Z"
71,-0.7805493,0.029123535,0.5934375,367,"2023-02-04T12:39:56.710Z"
83,-0.57771975,0.571001,-0.46439454,367,"2023-02-04T12:40:57.272Z"
76,0.12536377,0.9950366,0.16884033,346,"2023-02-04T12:41:57.835Z"
78,-0.8759204,0.4488623,-0.019001465,337,"2023-02-04T12:42:58.397Z"
61,-0.8736279,0.43836915,0.10159912,326,"2023-02-04T12:43:58.959Z"
66,0.13945068,0.98934084,-0.013684082,322,"2023-02-04T12:44:59.522Z"
73,-0.39712647,0.39766845,0.81440675,319,"2023-02-04T12:46:00.084Z"
67,-0.6727905,0.27840576,0.6741626,318,"2023-02-04T12:47:00.646Z"
65,0.45165282,0.8435571,0.29661864,318,"2023-02-04T12:48:01.208Z"
66,-0.84236085,0.37423095,0.3455835,312,"2023-02-04T12:49:01.771Z"
54,0.13862549,0.6070166,0.80553466,312,"2023-02-04T12:50:02.333Z"
46,0.3311206,0.8938574,0.2693164,316,"2023-02-04T12:51:02.895Z"
62,-0.45475098,0.6983618,0.51076907,332,"2023-02-04T12:52:03.457Z"
59,0.5990894,0.62718993,-0.41461426,347,"2023-02-04T12:53:04.019Z"
66,-0.6887158,0.6519434,0.24275146,354,"2023-02-04T12:54:04.581Z"
55,-0.3212158,0.78802735,-0.5268872,359,"2023-02-04T12:55:05.143Z"
54,-0.33649415,0.9184961,-0.15609619,363,"2023-02-04T12:56:05.706Z"
56,-0.2532422,0.8002564,-0.54875976,369,"2023-02-04T12:57:06.268Z"
51,-0.25049317,0.8444434,-0.47326905,375,"2023-02-04T12:58:06.830Z"
53,-0.15067871,0.9589258,0.21758544,362,"2023-02-04T12:59:07.393Z"
60,-0.4644995,0.768103,0.18452881,354,"2023-02-04T13:00:07.955Z"
76,-0.8111255,0.2386914,0.5006567,358,"2023-02-04T13:01:08.516Z"
81,-0.80530274,0.32699707,0.46870118,370,"2023-02-04T13:02:09.079Z"
83,-0.7293311,0.2720044,0.5526025,375,"2023-02-04T13:03:09.641Z"
76,-0.9629126,0.15754639,0.3777539,378,"2023-02-04T13:04:10.203Z"
69,-0.74972653,0.0022143554,0.6369531,379,"2023-02-04T13:05:10.765Z"
66,-0.7390796,0.37206298,0.38443115,381,"2023-02-04T13:06:11.327Z"
60,-0.89561033,0.40434083,-0.02340332,361,"2023-02-04T13:07:11.890Z"
61,0.8339868,0.3383203,0.4509961,353,"2023-02-04T13:08:12.452Z"
53,-0.8967065,0.40175048,-0.021530762,349,"2023-02-04T13:09:13.015Z"
56,-0.89433104,0.4079199,-0.024375,345,"2023-02-04T13:10:13.577Z"
49,-0.91117674,0.36167967,-0.0018652343,343,"2023-02-04T13:11:14.124Z"
51,0.4157666,0.8270166,0.3181958,342,"2023-02-04T13:12:14.687Z"
51,-0.9072241,0.3777588,0.01840332,341,"2023-02-04T13:13:15.249Z"
70,-0.0045532226,0.5703833,-0.8173706,340,"2023-02-04T13:14:15.811Z"
72,-0.8859033,0.40823486,-0.112314455,338,"2023-02-04T13:15:16.373Z"
69,-0.8226563,0.51970214,0.12672852,337,"2023-02-04T13:16:16.936Z"
64,0.06458496,0.9412744,-0.39563966,336,"2023-02-04T13:17:17.498Z"
60,-0.53026366,0.23299317,0.793606,335,"2023-02-04T13:18:18.060Z"
69,0.6431519,0.7282031,0.26501954,334,"2023-02-04T13:19:18.622Z"
65,0.28168213,0.83154786,0.47918212,333,"2023-02-04T13:20:19.184Z"
70,0.3467627,0.9320801,0.14087403,333,"2023-02-04T13:21:19.747Z"
60,-0.76842284,0.57236814,-0.27228516,337,"2023-02-04T13:22:20.311Z"
67,-0.74933594,0.630354,-0.18966064,352,"2023-02-04T13:23:20.870Z"
61,-0.9066089,0.45535645,0.08452637,360,"2023-02-04T13:24:21.433Z"
57,-0.87667966,0.43963134,0.04582031,365,"2023-02-04T13:25:21.995Z"
53,-0.90499026,0.48423585,-0.03513428,367,"2023-02-04T13:26:22.557Z"
58,-0.87179446,0.45434082,-0.048339844,370,"2023-02-04T13:27:23.119Z"
58,-0.9174927,0.3167041,0.17863281,370,"2023-02-04T13:28:23.681Z"
68,-0.88546145,0.41622558,0.07405029,373,"2023-02-04T13:29:24.244Z"
57,-0.68134034,0.68590575,-0.1720459,376,"2023-02-04T13:30:24.806Z"
75,-0.82852536,0.4428711,-0.12116455,378,"2023-02-04T13:31:25.368Z"
77,-0.86152345,0.3912085,0.18237793,386,"2023-02-04T13:32:25.930Z"
81,-0.90068114,0.251062,-0.402876,381,"2023-02-04T13:33:26.492Z"
60,-0.5436963,-0.019160157,0.8065698,387,"2023-02-04T13:34:27.054Z"
76,-0.7404883,0.18632324,0.6195654,390,"2023-02-04T13:35:27.617Z"
68,-0.6470459,0.23539795,0.7041895,374,"2023-02-04T13:36:28.179Z"
72,-0.78662354,0.27573732,0.5324658,365,"2023-02-04T13:37:28.742Z"
95,-0.96230716,0.2976245,-0.08522217,359,"2023-02-04T13:38:29.304Z"
116,-0.6489038,0.7335571,-0.12470459,353,"2023-02-04T13:39:29.866Z"
96,-0.9651196,0.512959,-0.0010058593,348,"2023-02-04T13:40:30.428Z"
85,-0.7406079,0.18393067,0.611272,364,"2023-02-04T13:41:30.990Z"
72,-0.32050538,0.38726807,-0.8621777,372,"2023-02-04T13:42:31.552Z"
57,-0.86410403,0.50237304,0.04572998,371,"2023-02-04T13:43:32.114Z"
77,0.6817749,0.76591307,0.20865479,367,"2023-02-04T13:44:32.676Z"
76,0.21757568,0.90004396,0.31859618,369,"2023-02-04T13:45:33.239Z"
77,-0.8778442,0.45406982,-0.0057006837,372,"2023-02-04T13:46:33.801Z"
71,-0.8624463,0.5422241,-0.03215332,364,"2023-02-04T13:47:34.363Z"
60,-0.7050415,0.65234864,-0.05435303,351,"2023-02-04T13:48:34.925Z"
68,-0.8551977,0.49946046,0.03342041,343,"2023-02-04T13:49:35.488Z"
59,0.3587622,0.81628174,-0.46665284,336,"2023-02-04T13:50:36.050Z"
54,0.36166015,0.71983397,-0.60275877,331,"2023-02-04T13:51:36.613Z"
59,0.25857666,0.78178465,-0.5748584,332,"2023-02-04T13:52:37.175Z"
54,0.35042968,0.7315991,-0.59456545,333,"2023-02-04T13:53:37.737Z"
56,0.40636718,0.7174634,-0.57897216,335,"2023-02-04T13:54:38.299Z"
60,0.40193602,0.8699878,-0.30953613,337,"2023-02-04T13:55:38.861Z"
52,0.37366945,0.80512697,-0.47371092,335,"2023-02-04T13:56:39.424Z"
63,0.39926025,0.74967283,-0.5448755,334,"2023-02-04T13:57:39.986Z"
57,0.46743408,0.75848144,-0.4743579,334,"2023-02-04T13:58:40.548Z"
58,0.5034473,0.7030444,-0.522002,334,"2023-02-04T13:59:41.110Z"
56,0.46030518,0.85007566,-0.2826538,335,"2023-02-04T14:00:41.673Z"
56,0.3136084,0.9290576,0.20509522,333,"2023-02-04T14:01:42.235Z"
62,0.37769777,0.78662354,-0.50248045,332,"2023-02-04T14:02:42.797Z"
50,0.45259765,0.7701514,-0.46953857,331,"2023-02-04T14:03:43.359Z"
58,0.2655127,0.7894653,-0.5653125,330,"2023-02-04T14:04:43.922Z"
56,0.276792,0.6160913,-0.7474121,328,"2023-02-04T14:05:44.484Z"
59,0.4257202,0.8246411,-0.39788818,328,"2023-02-04T14:06:45.046Z"
74,-0.42212403,0.8340405,-0.27679932,328,"2023-02-04T14:07:45.608Z"
65,-0.8498901,0.49324217,-0.014245605,328,"2023-02-04T14:08:46.171Z"
61,0.19099365,0.67394775,-0.7255078,328,"2023-02-04T14:09:46.732Z"
76,-0.6142944,0.7190796,0.07305908,331,"2023-02-04T14:10:47.294Z"
74,-0.8796948,0.42400634,0.09149902,331,"2023-02-04T14:11:47.857Z"
67,-0.89490235,0.42302734,0.016638184,329,"2023-02-04T14:12:48.420Z"
57,-0.64076173,0.7465088,0.04887207,324,"2023-02-04T14:13:48.982Z"
52,-0.74423826,0.6413843,-0.049367677,322,"2023-02-04T14:14:49.544Z"
59,-0.78811526,0.60053223,0.028796386,322,"2023-02-04T14:15:50.106Z"
67,-0.7055444,0.27939454,0.61427736,323,"2023-02-04T14:16:50.669Z"
94,0.59195554,0.45805418,0.37230468,324,"2023-02-04T14:17:51.231Z"
73,-0.7558667,0.31080323,0.6000635,322,"2023-02-04T14:18:51.793Z"
70,-0.6326196,0.10684571,0.74139893,320,"2023-02-04T14:19:52.355Z"
63,-0.7542456,0.1716211,0.5995459,318,"2023-02-04T14:20:52.918Z"
67,-0.6795703,0.25490966,0.6425122,314,"2023-02-04T14:21:53.480Z"
79,-0.74284667,0.25426513,0.582229,308,"2023-02-04T14:22:54.042Z"
80,-0.46875733,0.4308325,0.7343311,304,"2023-02-04T14:23:54.604Z"
75,0.27986327,0.684729,-0.6866919,302,"2023-02-04T14:24:55.167Z"
54,0.5407959,0.6784717,-0.51958984,301,"2023-02-04T14:25:55.729Z"
54,0.49445802,0.8475293,-0.20651612,300,"2023-02-04T14:26:56.291Z"
58,0.08823731,0.6113477,-0.7831958,299,"2023-02-04T14:27:56.854Z"
55,0.4849707,0.7497363,-0.47395265,296,"2023-02-04T14:28:57.416Z"
53,0.3043115,0.8249292,-0.4904834,294,"2023-02-04T14:29:57.978Z"
56,0.8196362,0.004267578,0.60111815,295,"2023-02-04T14:30:58.540Z"
53,0.85319334,-0.18529785,0.5259741,297,"2023-02-04T14:31:59.103Z"
57,0.88092285,0.43419677,-0.25198486,296,"2023-02-04T14:32:59.665Z"
50,0.8601245,0.4103467,-0.35440186,293,"2023-02-04T14:34:00.227Z"
52,0.73142576,0.59025633,-0.45657715,291,"2023-02-04T14:35:00.789Z"
53,0.85790527,0.4649463,-0.28530028,292,"2023-02-04T14:36:01.352Z"
49,0.74381346,0.45404786,-0.52436036,290,"2023-02-04T14:37:01.914Z"
54,0.49901122,0.7366431,-0.47955078,290,"2023-02-04T14:38:02.476Z"
60,0.43041992,0.84520996,-0.34071776,290,"2023-02-04T14:39:03.039Z"
49,0.52280027,0.6439575,-0.58531004,291,"2023-02-04T14:40:03.601Z"
59,0.4078418,0.67394775,-0.6252466,291,"2023-02-04T14:41:04.163Z"
58,0.51060057,0.8593384,-0.14174317,291,"2023-02-04T14:42:04.725Z"
65,0.50208986,0.59309083,-0.6456836,292,"2023-02-04T14:43:05.288Z"
49,0.43718994,0.7468921,-0.52360594,292,"2023-02-04T14:44:05.850Z"
57,0.53484374,0.62540036,-0.58838624,292,"2023-02-04T14:45:06.412Z"
64,-0.8495288,0.4920532,-0.015351563,292,"2023-02-04T14:46:06.975Z"
64,-0.31036866,0.9254883,-0.019301757,292,"2023-02-04T14:47:07.537Z"
71,-0.25373048,0.63993895,0.7031787,290,"2023-02-04T14:48:08.099Z"
63,-0.93128663,0.28736573,0.10367676,291,"2023-02-04T14:49:08.661Z"
64,-0.652959,0.1862622,0.6946094,291,"2023-02-04T14:50:09.224Z"
68,-0.67354006,0.16251464,0.6879712,289,"2023-02-04T14:51:09.786Z"
61,-0.5116675,0.16571778,0.8212964,289,"2023-02-04T14:52:10.348Z"
70,-0.2585791,0.5096094,0.6945996,291,"2023-02-04T14:53:10.910Z"
69,-0.66807127,0.21229492,0.6274878,293,"2023-02-04T14:54:11.473Z"
70,-0.74227786,0.39465332,0.52230716,295,"2023-02-04T14:55:12.035Z"
76,-0.097197264,0.6550122,0.8521118,296,"2023-02-04T14:56:12.597Z"
75,-0.20148925,0.90356445,0.2027246,298,"2023-02-04T14:57:13.160Z"
78,0.65706545,0.6156421,-0.4564795,299,"2023-02-04T14:58:13.722Z"
77,0.25170898,0.6989966,0.649668,300,"2023-02-04T14:59:14.284Z"
69,0.2529541,0.7406372,0.6390771,300,"2023-02-04T15:00:14.846Z"
68,0.3160132,0.4523706,0.79788816,300,"2023-02-04T15:01:15.409Z"
67,0.32267335,0.93571776,0.025280762,299,"2023-02-04T15:02:15.971Z"
60,0.47470215,0.8773242,-0.15435302,299,"2023-02-04T15:03:16.533Z"
62,0.36456054,0.918606,-0.19446045,298,"2023-02-04T15:04:17.095Z"
66,0.50387937,0.84630126,-0.1656665,297,"2023-02-04T15:05:17.658Z"
58,0.38601318,0.6775464,0.65890867,296,"2023-02-04T15:06:18.220Z"
58,0.29221436,0.7741162,0.55861086,295,"2023-02-04T15:07:18.782Z"
65,0.41261232,0.62777346,0.63414305,295,"2023-02-04T15:08:19.344Z"
69,0.47059813,0.5941626,0.6602075,295,"2023-02-04T15:09:19.907Z"
62,0.027565919,0.9646167,0.24866211,294,"2023-02-04T15:10:20.469Z"
57,0.1743872,0.9759619,-0.14045899,293,"2023-02-04T15:11:21.031Z"
55,0.30436766,0.8923999,0.3367285,292,"2023-02-04T15:12:21.594Z"
56,0.5653393,0.48903808,0.6755957,290,"2023-02-04T15:13:22.156Z"
72,0.9738867,0.21855469,0.09467041,290,"2023-02-04T15:14:22.718Z"
74,0.032348633,0.824292,-0.5505493,289,"2023-02-04T15:15:23.281Z"
77,-0.39352784,0.6370581,-0.73713624,288,"2023-02-04T15:16:23.843Z"
72,-0.22800536,0.7686743,0.5194336,285,"2023-02-04T15:17:24.405Z"
77,-0.1438794,0.88822997,-0.43607667,286,"2023-02-04T15:18:24.967Z"
63,-0.7134253,0.7788721,-0.15035644,286,"2023-02-04T15:19:25.530Z"
68,0.14718994,0.97745115,0.0076953126,283,"2023-02-04T15:20:26.092Z"
76,-0.39828858,0.87690675,-0.24567626,284,"2023-02-04T15:21:26.654Z"
78,-0.63217044,0.37986085,0.6025513,281,"2023-02-04T15:22:27.217Z"
66,-0.22622558,0.96575683,-0.049404297,283,"2023-02-04T15:23:27.779Z"
49,-0.1489209,0.7099756,0.6057739,285,"2023-02-04T15:24:28.341Z"
46,0.07207764,0.99125487,-0.10457764,287,"2023-02-04T15:25:28.903Z"
51,0.07667236,0.98989016,-0.1135791,291,"2023-02-04T15:26:29.466Z"
68,0.059345704,0.89138186,0.3393921,294,"2023-02-04T15:27:30.028Z"
87,0.018208008,0.7084204,-0.6957202,296,"2023-02-04T15:28:30.590Z"
84,-0.41301024,0.12678711,0.861875,298,"2023-02-04T15:29:31.152Z"
86,-0.6631055,0.36597168,0.6350391,298,"2023-02-04T15:30:31.715Z"
88,-0.67083496,0.20833984,0.6784082,295,"2023-02-04T15:31:32.277Z"
77,-0.09016113,0.9452856,0.2803003,291,"2023-02-04T15:32:32.839Z"
73,-0.8669922,0.45821288,0.03623291,292,"2023-02-04T15:33:33.402Z"
71,-0.8708643,0.45471436,0.04415039,294,"2023-02-04T15:34:33.964Z"
82,0.24192138,0.40271485,-0.89618653,294,"2023-02-04T15:35:34.526Z"
89,-0.8836572,0.4237329,-0.0553125,294,"2023-02-04T15:36:35.088Z"
90,-0.90538085,0.38769042,-0.054179687,295,"2023-02-04T15:37:35.651Z"
93,-0.88252443,0.43015137,-0.024980469,294,"2023-02-04T15:38:36.213Z"
104,-0.31462157,0.8744458,-0.0100219725,291,"2023-02-04T15:39:36.775Z"
100,-0.8822998,0.43301758,-0.00852539,291,"2023-02-04T15:40:37.337Z"
85,-0.8663159,0.46043944,-0.05632324,292,"2023-02-04T15:41:37.900Z"
61,-0.83509034,0.4895288,-0.16670166,291,"2023-02-04T15:42:38.462Z"
59,-0.8884546,0.42283204,0.039016113,290,"2023-02-04T15:43:39.024Z"
60,-0.8376148,0.4758667,0.07379883,287,"2023-02-04T15:44:39.586Z"
65,-0.8960449,0.3962207,0.05959961,284,"2023-02-04T15:45:40.149Z"
57,-0.8800049,0.4368042,-0.03316162,284,"2023-02-04T15:46:40.711Z"
67,-0.87573,0.44561768,-0.039926756,285,"2023-02-04T15:47:41.273Z"
83,-0.8871631,0.41521484,-0.008850098,287,"2023-02-04T15:48:41.836Z"
59,-0.87685794,0.4400244,-0.07553955,290,"2023-02-04T15:49:42.398Z"
58,-0.88025635,0.43517822,-0.048044432,291,"2023-02-04T15:50:42.960Z"
64,-0.8766455,0.44189453,-0.06944336,293,"2023-02-04T15:51:43.522Z"
74,-0.21778564,0.9173462,0.29555663,293,"2023-02-04T15:52:44.085Z"
63,-0.3230493,0.9361938,0.02125,289,"2023-02-04T15:53:44.647Z"
56,-0.33650634,0.92659426,0.07779053,288,"2023-02-04T15:54:45.209Z"
56,-0.34910643,0.92316407,0.10623291,288,"2023-02-04T15:55:45.771Z"
60,-0.17053956,0.9565454,0.2006372,294,"2023-02-04T15:56:46.334Z"
73,-0.3281006,0.8766016,0.31748047,296,"2023-02-04T15:57:46.896Z"
70,0.83727294,0.39308107,0.4102588,301,"2023-02-04T15:58:47.458Z"
77,-0.15019287,0.96533203,-0.23487304,304,"2023-02-04T15:59:48.021Z"
82,-0.59180665,0.8583789,-0.13615234,306,"2023-02-04T16:00:48.583Z"
76,-0.90437746,0.25963134,0.07609131,307,"2023-02-04T16:01:49.145Z"
78,-0.61406004,0.72707033,-0.2771875,307,"2023-02-04T16:02:49.708Z"
76,-0.76799804,-0.009543457,0.5753418,307,"2023-02-04T16:03:50.270Z"
88,-0.70998293,0.6507544,-0.03874756,306,"2023-02-04T16:04:50.832Z"
91,-0.044377442,0.93571043,0.33856934,306,"2023-02-04T16:05:51.394Z"
75,-0.4524536,0.38195068,0.7492896,306,"2023-02-04T16:06:51.957Z"
63,0.21992676,0.92373776,0.21299072,306,"2023-02-04T16:07:52.519Z"
81,-0.7913037,0.31179687,0.50253415,306,"2023-02-04T16:08:53.081Z"
72,-0.67344236,0.30683106,0.6426636,306,"2023-02-04T16:09:53.643Z"
72,-0.71807617,0.14664063,0.64186037,306,"2023-02-04T16:10:54.206Z"
60,-0.69712156,0.06327393,0.6937109,306,"2023-02-04T16:11:54.768Z"
73,-0.7462573,0.06039551,0.6519849,306,"2023-02-04T16:12:55.330Z"
65,-0.1255835,0.85672605,0.43136963,306,"2023-02-04T16:13:55.892Z"
68,-0.60692626,0.46314943,0.6393579,306,"2023-02-04T16:14:56.455Z"
76,-0.690896,0.21509765,0.65504396,306,"2023-02-04T16:15:57.017Z"
63,-0.70373535,0.11960938,0.6607373,306,"2023-02-04T16:16:57.579Z"
61,-0.68358886,0.13344483,0.69013184,306,"2023-02-04T16:17:58.141Z"
77,-0.7462524,0.010559082,0.6526001,306,"2023-02-04T16:18:58.704Z"
75,-0.6861328,0.18962158,0.66113037,306,"2023-02-04T16:19:59.266Z"
73,-0.68310547,0.15498535,0.6673535,306,"2023-02-04T16:20:59.828Z"
65,-0.6845801,0.03982666,0.6971142,306,"2023-02-04T16:22:00.391Z"
66,-0.6914209,0.18447754,0.67694825,306,"2023-02-04T16:23:00.953Z"
72,-0.77391356,0.13453369,0.5937329,306,"2023-02-04T16:24:01.515Z"
77,-0.74040526,0.20916504,0.648313,306,"2023-02-04T16:25:02.077Z"
74,-0.71256834,0.29106688,0.62137693,306,"2023-02-04T16:26:02.640Z"
82,-0.731499,0.2206665,0.6375928,306,"2023-02-04T16:27:03.202Z"
89,-0.24743164,0.86682373,0.1496997,306,"2023-02-04T16:28:03.764Z"
87,-0.3849878,0.84215087,0.33387938,306,"2023-02-04T16:29:04.327Z"
68,-0.591604,0.69827634,0.30896974,306,"2023-02-04T16:30:04.889Z"
70,-0.8119043,0.5381445,0.112106934,306,"2023-02-04T16:31:05.451Z"
63,-0.7650879,0.5795654,0.19519043,306,"2023-02-04T16:32:06.013Z"
61,-0.43956786,0.83952147,0.267229,306,"2023-02-04T16:33:06.576Z"
58,-0.46780518,0.869978,-0.0491333,306,"2023-02-04T16:34:07.138Z"
61,-0.3017627,0.9418237,0.12715332,306,"2023-02-04T16:35:07.700Z"
64,0.39920655,0.9203711,-0.07641357,306,"2023-02-04T16:36:08.263Z"
71,-0.5952393,0.37548095,-0.72728026,306,"2023-02-04T16:37:08.825Z"
79,-0.041376952,0.8938354,-0.449187,306,"2023-02-04T16:38:09.387Z"
71,-0.43004638,0.67549807,0.56716067,306,"2023-02-04T16:39:09.949Z"
91,-0.71068114,0.43438232,0.5393481,306,"2023-02-04T16:40:10.512Z"
72,0.12314942,0.6407544,-0.6390552,306,"2023-02-04T16:41:11.074Z"
61,0.32139406,0.123100586,-0.95310056,306,"2023-02-04T16:42:11.636Z"
73,-0.25896484,0.8349658,-0.16056885,306,"2023-02-04T16:43:12.198Z"
79,-0.46832275,0.7456396,-0.43038085,306,"2023-02-04T16:44:12.761Z"
67,0.031550292,0.97818357,0.18770751,306,"2023-02-04T16:45:13.323Z"
62,0.29234862,0.7030835,-0.6529443,306,"2023-02-04T16:46:13.885Z"
71,-0.57271,0.72237796,-0.27875,306,"2023-02-04T16:47:14.448Z"
75,-0.8995923,0.35435304,0.048537597,306,"2023-02-04T16:48:15.010Z"
78,-0.22350098,0.905271,-0.26709718,306,"2023-02-04T16:49:15.572Z"
76,-0.76894534,0.17698975,0.58839357,306,"2023-02-04T16:50:16.135Z"
77,-0.67513674,0.24250244,0.64855224,306,"2023-02-04T16:51:16.697Z"
76,-0.07085937,0.8960278,0.42389894,306,"2023-02-04T16:52:17.259Z"
75,-0.64046144,0.62989014,0.38519287,306,"2023-02-04T16:53:17.821Z"
78,-0.6754028,0.3662378,0.60985595,306,"2023-02-04T16:54:18.384Z"
58,-0.71906006,0.35277832,0.5762012,306,"2023-02-04T16:55:18.946Z"
66,-0.6213672,0.36377686,0.64088625,306,"2023-02-04T16:56:19.508Z"
73,-0.65926516,0.22676514,0.6741064,306,"2023-02-04T16:57:20.070Z"
74,-0.674021,0.23480713,0.67878664,306,"2023-02-04T16:58:20.633Z"
79,-0.6623755,0.27723876,0.64849854,306,"2023-02-04T16:59:21.195Z"
76,-0.67486084,0.19567627,0.682854,306,"2023-02-04T17:00:21.757Z"
77,-0.7026196,0.19985595,0.6601465,306,"2023-02-04T17:01:22.320Z"
74,-0.7217554,0.21838135,0.6283398,306,"2023-02-04T17:02:22.882Z"
80,-0.7154712,0.15597901,0.6253003,306,"2023-02-04T17:03:23.444Z"
70,-0.3994702,0.5169409,0.7330591,306,"2023-02-04T17:04:24.006Z"
71,-0.6628491,0.26206055,0.67540526,306,"2023-02-04T17:05:24.569Z"
83,-0.6759009,0.21679688,0.6797754,306,"2023-02-04T17:06:25.131Z"
79,-0.6712622,0.19189209,0.68104494,306,"2023-02-04T17:07:25.693Z"
74,-0.66385496,0.26296386,0.6865967,306,"2023-02-04T17:08:26.255Z"
69,-0.34479737,0.4115869,0.8232544,306,"2023-02-04T17:09:26.818Z"
79,-0.67285156,0.23217529,0.68638915,306,"2023-02-04T17:10:27.380Z"
87,-0.6785327,0.22043458,0.6779761,306,"2023-02-04T17:11:27.942Z"
81,-0.649519,0.26338866,0.6803589,306,"2023-02-04T17:12:28.504Z"
72,-0.6815527,0.28037843,0.6615527,306,"2023-02-04T17:13:29.067Z"
81,-0.37825927,0.30579102,0.84093505,306,"2023-02-04T17:14:29.629Z"
78,-0.66043454,0.27116942,0.6791504,306,"2023-02-04T17:15:30.191Z"
76,-0.64918214,0.24991211,0.6957666,306,"2023-02-04T17:16:30.753Z"
84,-0.6536328,0.19842774,0.7027417,306,"2023-02-04T17:17:31.316Z"
77,-0.67544436,0.23245606,0.65871096,306,"2023-02-04T17:18:31.878Z"
80,-0.65419436,0.24233398,0.6793652,306,"2023-02-04T17:19:32.440Z"
78,-0.6554492,0.29605958,0.6648169,306,"2023-02-04T17:20:33.003Z"
84,-0.67109376,0.2622412,0.6544434,306,"2023-02-04T17:21:33.565Z"
85,-0.6815967,0.33839357,0.62276125,306,"2023-02-04T17:22:34.127Z"
71,-0.66318357,0.25364503,0.6686255,306,"2023-02-04T17:23:34.689Z"
78,-0.52430665,0.24320556,0.79622805,306,"2023-02-04T17:24:35.252Z"
72,-0.79894775,0.27634522,0.5051831,306,"2023-02-04T17:25:35.814Z"
77,-0.23273925,0.9040356,-0.3644458,306,"2023-02-04T17:26:36.376Z"
75,-0.7529907,0.5047705,0.39278564,306,"2023-02-04T17:27:36.938Z"
77,0.7697974,-0.022802735,0.671084,306,"2023-02-04T17:28:37.501Z"
74,-0.46535644,0.74677736,0.4318408,306,"2023-02-04T17:29:38.063Z"
78,0.17034912,0.6414331,-0.7581714,306,"2023-02-04T17:30:38.625Z"
61,0.15751465,0.64785403,-0.75592285,306,"2023-02-04T17:31:39.188Z"
56,0.3519824,0.65683347,-0.664397,306,"2023-02-04T17:32:39.750Z"
81,-0.08772461,0.8697876,0.39731202,306,"2023-02-04T17:33:40.312Z"
84,-0.2715625,0.90665525,-0.079182126,306,"2023-02-04T17:34:40.875Z"
92,-0.54452395,0.82756346,-0.012675781,306,"2023-02-04T17:35:41.437Z"
88,0.18481445,0.1663208,0.9574097,306,"2023-02-04T17:36:41.999Z"
99,0.1913501,0.95296144,-0.062197264,306,"2023-02-04T17:37:42.546Z"
98,0.53963625,0.6595923,0.5907837,306,"2023-02-04T17:38:43.109Z"
79,0.3012671,0.80029297,0.5008594,306,"2023-02-04T17:39:43.671Z"
68,0.552854,0.7917407,-0.29739746,306,"2023-02-04T17:40:44.233Z"
63,0.6222046,0.50669676,0.5455005,306,"2023-02-04T17:41:44.795Z"
73,0.5313623,0.76269287,-0.39679933,306,"2023-02-04T17:42:45.358Z"
75,0.7828882,0.5872461,-0.12098877,306,"2023-02-04T17:43:45.920Z"
63,0.5120605,0.85531497,-0.1710669,306,"2023-02-04T17:44:46.482Z"
76,0.75514406,0.30695558,0.59178466,306,"2023-02-04T17:45:47.044Z"
68,0.8414331,0.47083986,0.32341796,306,"2023-02-04T17:46:47.607Z"
66,0.7938794,0.6095508,0.15930176,306,"2023-02-04T17:47:48.169Z"
68,-0.02781006,0.94486815,-0.32496825,306,"2023-02-04T17:48:48.731Z"
72,-0.86171633,0.32166994,0.36901367,306,"2023-02-04T17:49:49.294Z"
53,0.13583007,0.9458765,-0.305459,306,"2023-02-04T17:50:49.856Z"
51,0.15612304,0.90681154,-0.40124267,306,"2023-02-04T17:51:50.418Z"
50,0.4658252,0.8479297,-0.28372315,306,"2023-02-04T17:52:50.980Z"
62,0.4200586,0.8506104,-0.34147704,306,"2023-02-04T17:53:51.543Z"
54,0.26895997,0.82969725,-0.50326174,306,"2023-02-04T17:54:52.105Z"
53,0.023718262,0.708396,0.6948071,306,"2023-02-04T17:55:52.667Z"
51,0.042929687,0.76785886,0.6276831,306,"2023-02-04T17:56:53.230Z"
54,0.031467285,0.7619409,0.6359863,306,"2023-02-04T17:57:53.792Z"
52,0.58049804,0.7626636,0.31816894,306,"2023-02-04T17:58:54.354Z"
70,-0.20414062,0.7876538,0.22685547,306,"2023-02-04T17:59:54.917Z"
70,0.08358398,0.9432495,-0.32909912,306,"2023-02-04T18:00:55.479Z"
61,0.11812988,0.9263867,-0.3673584,306,"2023-02-04T18:01:56.041Z"
51,0.12478271,0.9473608,-0.3012671,306,"2023-02-04T18:02:56.603Z"
62,-0.66279787,0.57190675,0.3526245,306,"2023-02-04T18:03:57.166Z"
78,-0.35561523,0.94969726,-0.10507569,306,"2023-02-04T18:04:57.728Z"
81,-0.85920656,0.4777344,-0.025905762,306,"2023-02-04T18:05:58.290Z"
62,-0.8039136,0.56727785,-0.03633789,306,"2023-02-04T18:06:58.853Z"
71,0.13557373,0.9775,-0.13854247,306,"2023-02-04T18:07:59.415Z"
69,-0.87357175,0.4465918,0.037009276,306,"2023-02-04T18:08:59.977Z"
68,-0.8785669,0.43398437,0.046574708,306,"2023-02-04T18:10:00.540Z"
53,-0.8621826,0.44242188,0.15296143,306,"2023-02-04T18:11:01.102Z"
52,-0.85432374,0.46751463,0.1064917,306,"2023-02-04T18:12:01.664Z"
53,-0.8551099,0.46558595,0.12243408,306,"2023-02-04T18:13:02.226Z"
57,-0.8747852,0.43824708,0.06595459,306,"2023-02-04T18:14:02.789Z"
55,-0.8934863,0.40691894,0.02052246,306,"2023-02-04T18:15:03.351Z"
61,-0.8934277,0.4079419,0.035859376,306,"2023-02-04T18:16:03.913Z"
58,-0.87244874,0.4488745,0.03880615,306,"2023-02-04T18:17:04.476Z"
72,-0.57075197,0.6711597,-0.4127539,306,"2023-02-04T18:18:05.038Z"
75,-1.0718213,0.5459912,0.090656735,306,"2023-02-04T18:19:05.600Z"
83,-0.10500244,0.84206545,-0.38162598,306,"2023-02-04T18:20:06.162Z"
94,-0.92965335,0.61075926,0.077041015,306,"2023-02-04T18:21:06.725Z"
89,0.03803711,0.8972876,-0.45714355,306,"2023-02-04T18:22:07.287Z"
94,0.3684424,0.95767576,-0.023156738,306,"2023-02-04T18:23:07.849Z"
93,-0.24180909,0.4620337,0.8384253,306,"2023-02-04T18:24:08.412Z"
92,-0.43436524,0.83985597,0.24395019,306,"2023-02-04T18:25:08.974Z"
85,-1.0685474,0.5500366,0.045881346,306,"2023-02-04T18:26:09.536Z"
106,-0.8322388,0.4488623,0.25426024,306,"2023-02-04T18:27:10.098Z"
120,0.33055663,0.9431201,-0.107983395,306,"2023-02-04T18:28:10.661Z"
109,-0.833938,0.52925295,0.013640136,306,"2023-02-04T18:29:11.223Z"
96,-0.8630127,0.45941162,0.08533935,306,"2023-02-04T18:30:11.785Z"
92,0.3974756,0.7745117,-0.5098511,306,"2023-02-04T18:31:12.348Z"
64,0.46186036,0.65072995,-0.61083984,306,"2023-02-04T18:32:12.910Z"
54,0.50238526,0.67061526,-0.56798583,306,"2023-02-04T18:33:13.472Z"
62,0.21220703,0.97615236,-0.045031738,306,"2023-02-04T18:34:14.034Z"
61,0.48813477,0.64719725,-0.60618407,306,"2023-02-04T18:35:14.597Z"
67,0.51985353,0.6355176,-0.5913721,306,"2023-02-04T18:36:15.159Z"
55,0.4462793,0.6826831,-0.5985498,306,"2023-02-04T18:37:15.721Z"
54,0.51958495,0.6013623,-0.62749755,306,"2023-02-04T18:38:16.283Z"
69,0.3806885,0.59778076,-0.7210962,306,"2023-02-04T18:39:16.846Z"
68,-0.86410886,0.4575122,-0.10279785,306,"2023-02-04T18:40:17.408Z"
80,-0.8489014,0.47923583,-0.12918213,306,"2023-02-04T18:41:17.970Z"
80,0.34400636,0.68225586,-0.6594287,306,"2023-02-04T18:42:18.533Z"
75,0.52373046,0.68709475,0.5181201,306,"2023-02-04T18:43:19.095Z"
79,0.4019873,0.79981935,-0.46060792,306,"2023-02-04T18:44:19.657Z"
67,0.34228027,0.6990015,-0.64018553,306,"2023-02-04T18:45:20.219Z"
67,0.48080322,0.6857788,-0.56340575,306,"2023-02-04T18:46:20.782Z"
60,0.5609839,0.77444094,-0.3247534,306,"2023-02-04T18:47:21.344Z"
68,0.3082544,0.51608396,-0.81432617,306,"2023-02-04T18:48:21.906Z"
57,0.7244043,0.34416747,0.6274194,306,"2023-02-04T18:49:22.469Z"
63,-0.8699463,0.43684328,-0.15218994,306,"2023-02-04T18:50:23.031Z"
71,-0.8907959,0.40135497,-0.11931641,306,"2023-02-04T18:51:23.593Z"
72,-0.8462671,0.46375734,-0.2019458,306,"2023-02-04T18:52:24.156Z"
49,-0.8768042,0.4273755,-0.13824219,306,"2023-02-04T18:53:24.718Z"
68,0.5121094,0.54452634,0.20639405,306,"2023-02-04T18:54:25.280Z"
75,-0.9086743,0.3639795,0.043955076,306,"2023-02-04T18:55:25.843Z"
78,0.4315503,0.8062158,-0.42848632,306,"2023-02-04T18:56:26.405Z"
64,0.2924707,0.74784666,-0.60974854,306,"2023-02-04T18:57:26.967Z"
68,-0.8681494,0.45834962,-0.06881104,306,"2023-02-04T18:58:27.529Z"
52,-0.88720214,0.4289673,-0.032580566,306,"2023-02-04T18:59:28.092Z"
76,-0.87075686,0.45827147,-0.005214844,306,"2023-02-04T19:00:28.654Z"
89,-0.3282959,0.6631494,0.55459476,306,"2023-02-04T19:01:29.216Z"
86,-0.94656736,0.26509276,0.031044923,306,"2023-02-04T19:02:29.779Z"
78,-0.8194263,0.3983032,0.3568213,306,"2023-02-04T19:03:30.341Z"
79,-0.4353662,0.8731885,-0.17062989,306,"2023-02-04T19:04:30.903Z"
65,-0.8625903,0.45826903,0.06889649,306,"2023-02-04T19:05:31.465Z"
70,-0.28881592,0.8883496,-0.0261792,306,"2023-02-04T19:06:32.028Z"
79,0.04593994,0.95556396,0.17693359,306,"2023-02-04T19:07:32.590Z"
83,-0.37010986,0.82566404,-0.3429248,306,"2023-02-04T19:08:33.152Z"
77,-0.6155102,-0.11813477,0.75509524,306,"2023-02-04T19:09:33.715Z"
66,-0.19198242,0.4209155,0.87426513,306,"2023-02-04T19:10:34.277Z"
75,-0.6865869,0.15574218,0.6963184,306,"2023-02-04T19:11:34.839Z"
84,-0.6746973,0.24832276,0.67522705,306,"2023-02-04T19:12:35.401Z"
83,-0.70369387,0.118515626,0.6631543,306,"2023-02-04T19:13:35.964Z"
86,-0.8464282,0.28899413,0.43995607,306,"2023-02-04T19:14:36.526Z"
95,-0.23001952,0.99260986,-0.6233227,306,"2023-02-04T19:15:37.088Z"
75,-0.57911134,0.6986206,-0.08709229,306,"2023-02-04T19:16:37.651Z"
86,-0.8718994,0.4684497,-0.02434082,306,"2023-02-04T19:17:38.213Z"
92,-0.74001956,0.5690967,-0.26518798,306,"2023-02-04T19:18:38.774Z"
100,0.9556543,-0.35957518,0.18988037,306,"2023-02-04T19:19:39.337Z"
96,-0.81083006,0.57074463,0.2416333,306,"2023-02-04T19:20:39.900Z"
93,-0.6928247,0.41095215,0.54155517,306,"2023-02-04T19:21:40.462Z"
103,0.92961425,-0.29552245,-0.20435059,306,"2023-02-04T19:22:41.024Z"
104,-0.065910645,1.0033106,0.16050048,306,"2023-02-04T19:23:41.587Z"
99,-0.8802124,0.37767333,0.16260986,306,"2023-02-04T19:24:42.149Z"
88,-0.826543,0.455354,0.26060545,306,"2023-02-04T19:25:42.711Z"
96,0.9740723,-0.075356446,-0.37813964,306,"2023-02-04T19:26:43.274Z"
111,-0.93779784,0.28114745,0.071560055,306,"2023-02-04T19:27:43.836Z"
106,-0.8276416,0.3621289,-0.5688208,306,"2023-02-04T19:28:44.398Z"
111,0.49551025,0.4514038,0.46841553,306,"2023-02-04T19:29:44.960Z"
104,-0.43446532,0.88611573,-0.033796385,306,"2023-02-04T19:30:45.523Z"
111,-0.90743655,0.15042481,-0.390625,306,"2023-02-04T19:31:46.055Z"
120,-0.15372315,0.87705076,0.25634277,306,"2023-02-04T19:32:46.617Z"
104,-0.40275633,0.68317384,0.31760988,306,"2023-02-04T19:33:47.180Z"
102,0.16386963,0.9409351,0.27124512,306,"2023-02-04T19:34:47.727Z"
101,-0.14625,0.8461694,-0.5244336,306,"2023-02-04T19:35:48.290Z"
61,-0.5442505,0.82128906,0.021726074,306,"2023-02-04T19:36:48.852Z"
60,0.41626954,0.89413816,-0.04736084,306,"2023-02-04T19:37:49.399Z"
61,0.004030762,0.7714697,0.61916506,306,"2023-02-04T19:38:49.961Z"
73,-0.32832032,0.50428957,0.79209715,306,"2023-02-04T19:39:50.524Z"
59,-0.35850343,0.28950197,0.8658472,306,"2023-02-04T19:40:51.086Z"
64,0.04989258,0.8501416,-0.48828125,306,"2023-02-04T19:41:51.648Z"
65,-0.011096192,0.93706053,0.114360355,306,"2023-02-04T19:42:52.211Z"
63,0.07938477,0.8851563,-0.32115477,306,"2023-02-04T19:43:52.773Z"
70,-0.050942384,0.9687061,0.1630249,306,"2023-02-04T19:44:53.335Z"
85,0.036071777,0.95669675,-0.25383055,306,"2023-02-04T19:45:53.897Z"
85,0.05854248,1.0468261,0.17300048,306,"2023-02-04T19:46:54.460Z"
69,0.046584472,0.75101316,-0.6733374,306,"2023-02-04T19:47:55.022Z"
77,0.01668457,0.8670117,-0.015493164,306,"2023-02-04T19:48:55.569Z"
73,0.04192139,0.9385669,0.19129883,306,"2023-02-04T19:49:56.132Z"
86,0.17779785,0.71605957,-0.68681395,306,"2023-02-04T19:50:56.694Z"
75,0.1866504,0.95576173,-0.013005371,306,"2023-02-04T19:51:57.256Z"
81,-0.5681934,0.7719922,-0.3072339,306,"2023-02-04T19:52:57.804Z"
85,0.13056153,0.8231665,-0.53398925,306,"2023-02-04T19:53:58.366Z"
68,0.005373535,0.87850344,-0.053896483,306,"2023-02-04T19:54:58.928Z"
74,0.057062987,0.4602173,-0.8919849,306,"2023-02-04T19:55:59.490Z"
74,0.34037355,0.41195068,-0.87938964,306,"2023-02-04T19:57:00.053Z"
74,0.24556641,0.6354541,0.54673827,306,"2023-02-04T19:58:00.615Z"
79,-0.25052735,0.40618163,0.8146021,306,"2023-02-04T19:59:01.177Z"
85,-0.105402835,0.3799414,0.9471997,306,"2023-02-04T20:00:01.740Z"
98,-0.39408693,0.3509961,0.77828616,306,"2023-02-04T20:01:02.302Z"
108,-0.30867675,0.79462403,0.46445557,306,"2023-02-04T20:02:02.864Z"
97,0.026879882,0.6478345,0.6472241,306,"2023-02-04T20:03:03.427Z"
105,-0.1097583,0.5363476,0.76374024,306,"2023-02-04T20:04:03.989Z"
100,-0.38946044,0.38695067,0.8188501,306,"2023-02-04T20:05:04.551Z"
109,0.17278564,0.53518313,0.80016845,306,"2023-02-04T20:06:05.113Z"
91,-0.12767334,0.33747804,0.8611279,306,"2023-02-04T20:07:05.676Z"
88,-0.40174073,-0.06227295,0.7880151,306,"2023-02-04T20:08:06.238Z"
101,-0.2519995,0.82854,0.47340575,306,"2023-02-04T20:09:06.800Z"
109,-0.14491455,0.97834474,0.13365966,306,"2023-02-04T20:10:07.362Z"
92,-0.28523436,0.9000513,-0.31517822,306,"2023-02-04T20:11:07.925Z"
92,-0.4461328,0.5737109,0.6646924,306,"2023-02-04T20:12:08.487Z"
90,-0.17272705,0.7615869,0.5496387,306,"2023-02-04T20:13:09.049Z"
80,0.09407959,0.8945337,-0.4364624,306,"2023-02-04T20:14:09.612Z"
77,-0.48515138,0.18646729,0.8135962,306,"2023-02-04T20:15:10.174Z"
77,-0.3869629,0.46967775,0.7759473,306,"2023-02-04T20:16:10.736Z"
81,-0.23786865,0.8938672,0.095236816,306,"2023-02-04T20:17:11.298Z"
73,-0.28217286,0.87256837,-0.39020264,306,"2023-02-04T20:18:11.861Z"
71,-0.030344239,0.74146485,0.21655518,306,"2023-02-04T20:19:12.423Z"
79,-0.30907714,0.88235354,-0.25849122,306,"2023-02-04T20:20:12.985Z"
74,-0.90877444,0.25134766,-0.293501,306,"2023-02-04T20:21:13.547Z"
74,-0.28237793,0.82773435,0.45263427,306,"2023-02-04T20:22:14.110Z"
77,0.004770508,0.85993165,0.4655542,306,"2023-02-04T20:23:14.672Z"
75,-0.12238037,1.0013355,-0.05720459,306,"2023-02-04T20:24:15.234Z"
82,0.2727124,0.93234134,-0.24066406,306,"2023-02-04T20:25:15.796Z"
64,-0.12641357,0.90118897,-0.39167237,306,"2023-02-04T20:26:16.359Z"
73,-0.11338379,0.8563501,-0.502749,306,"2023-02-04T20:27:16.921Z"
67,0.18627685,0.9924731,0.02385498,306,"2023-02-04T20:28:17.483Z"
57,0.2780835,0.9544458,0.071433105,306,"2023-02-04T20:29:18.045Z"
68,0.2552588,0.95275146,-0.17516601,306,"2023-02-04T20:30:18.608Z"
64,0.22662109,0.97203857,0.053742677,306,"2023-02-04T20:31:19.170Z"
59,0.34621826,0.6597241,0.66086423,306,"2023-02-04T20:32:19.717Z"
63,0.41000977,0.590105,0.6977246,306,"2023-02-04T20:33:20.280Z"
64,0.2294336,0.74207765,0.62430906,306,"2023-02-04T20:34:20.842Z"
59,0.19289795,0.77035403,0.59424317,306,"2023-02-04T20:35:21.404Z"
63,0.43979493,0.7954077,0.42420655,306,"2023-02-04T20:36:21.966Z"
66,0.30414063,0.96054685,-0.10821045,306,"2023-02-04T20:37:22.529Z"
58,0.41147217,0.9103687,0.13689941,306,"2023-02-04T20:38:23.091Z"
61,0.0056860354,0.3703003,0.9097925,306,"2023-02-04T20:39:23.653Z"
62,0.25840333,0.806731,0.52542967,306,"2023-02-04T20:40:24.215Z"
54,0.24067138,0.95429933,-0.19343261,306,"2023-02-04T20:41:24.778Z"
62,0.18279296,0.9674072,-0.15769531,306,"2023-02-04T20:42:25.340Z"
61,0.0776001,0.90289307,0.4086377,306,"2023-02-04T20:43:25.902Z"
55,0.27659425,0.9118042,0.3032666,306,"2023-02-04T20:44:26.464Z"
64,-0.4274341,0.81777835,0.30771485,306,"2023-02-04T20:45:27.027Z"
71,-0.11774902,0.9796289,0.17829102,306,"2023-02-04T20:46:27.589Z"
74,-0.54827636,0.6881885,-0.18967773,306,"2023-02-04T20:47:28.151Z"
57,-0.8755957,0.42709228,-0.13391358,306,"2023-02-04T20:48:28.713Z"
66,-0.7244604,0.6049609,0.017683106,306,"2023-02-04T20:49:29.276Z"
74,0.21902099,0.77729005,-0.6022241,306,"2023-02-04T20:50:29.838Z"
58,-0.2769751,0.82612306,-0.48393798,306,"2023-02-04T20:51:30.400Z"
59,-0.6864575,0.685581,0.18046875,306,"2023-02-04T20:52:30.963Z"
50,-0.5439502,0.81927,0.15074463,306,"2023-02-04T20:53:31.525Z"
62,-0.84364504,0.4609912,-0.21335693,306,"2023-02-04T20:54:32.087Z"
66,-0.14501464,0.9863867,0.021950684,306,"2023-02-04T20:55:32.649Z"
57,-0.11063232,0.9903223,-0.20144531,306,"2023-02-04T20:56:33.212Z"
62,-0.8635693,0.4542163,0.23449707,306,"2023-02-04T20:57:33.774Z"
61,-0.45738524,0.66602784,0.4563965,306,"2023-02-04T20:58:34.336Z"
64,-0.18575439,0.65955323,0.56454104,306,"2023-02-04T20:59:34.898Z"
70,-0.18525635,0.94325686,-0.18632813,306,"2023-02-04T21:00:35.461Z"
70,-0.12757568,0.96429443,0.265271,306,"2023-02-04T21:01:36.023Z"
83,-0.82878906,0.4874048,-0.13375,306,"2023-02-04T21:02:36.585Z"
81,0.36157715,0.86540526,0.20143555,306,"2023-02-04T21:03:37.147Z"
61,0.7754004,0.49219483,0.41578856,306,"2023-02-04T21:04:37.709Z"
58,0.4813452,0.86257815,0.1871582,306,"2023-02-04T21:05:38.304Z"
54,0.5769043,0.7590552,0.29977784,306,"2023-02-04T21:06:38.866Z"
61,0.6622876,0.75320554,-0.13659424,306,"2023-02-04T21:07:39.429Z"
57,-0.8330395,0.479917,0.19994384,306,"2023-02-04T21:08:39.991Z"
54,-0.45443115,0.85995364,0.16291016,306,"2023-02-04T21:09:40.553Z"
51,0.7837622,0.60205567,-0.23094727,306,"2023-02-04T21:10:41.115Z"
65,-0.9210327,0.43114012,0.115007326,306,"2023-02-04T21:11:41.678Z"
72,0.67865235,0.4911841,-0.5715601,306,"2023-02-04T21:12:42.240Z"
59,0.41097656,0.8857837,0.21848145,306,"2023-02-04T21:13:42.802Z"
54,0.4236255,0.86688477,-0.27767822,306,"2023-02-04T21:14:43.365Z"
56,-0.44341308,0.8544409,0.21186036,306,"2023-02-04T21:15:43.927Z"
67,0.6400073,0.58814454,0.5514282,306,"2023-02-04T21:16:44.489Z"
75,-0.36319336,0.90668213,0.13854247,306,"2023-02-04T21:17:45.052Z"
67,-0.24554932,0.82964844,-0.49738282,306,"2023-02-04T21:18:45.614Z"
65,-0.06768799,0.93348145,0.21631593,306,"2023-02-04T21:19:46.176Z"
63,-0.79315674,0.4025708,-0.4698169,306,"2023-02-04T21:20:46.738Z"
70,0.8066211,0.6134448,0.112155765,306,"2023-02-04T21:21:47.301Z"
50,0.27634522,0.7008301,-0.6713086,306,"2023-02-04T21:22:47.863Z"
53,0.46709716,0.67775637,-0.58944094,306,"2023-02-04T21:23:48.425Z"
64,0.47405273,0.7951294,-0.34598145,306,"2023-02-04T21:24:48.987Z"
45,0.3995288,0.8111011,-0.44675782,306,"2023-02-04T21:25:49.550Z"
42,0.4133716,0.65045166,-0.65483886,306,"2023-02-04T21:26:50.112Z"
49,0.4251416,0.68184084,-0.613833,306,"2023-02-04T21:27:50.674Z"
43,0.4156128,0.7161572,-0.57869387,306,"2023-02-04T21:28:51.236Z"
42,0.40560547,0.7412354,-0.55253905,306,"2023-02-04T21:29:51.784Z"
41,0.4226245,0.73861086,-0.5430737,306,"2023-02-04T21:30:52.346Z"
43,0.42114258,0.74950683,-0.5304175,306,"2023-02-04T21:31:52.893Z"
44,0.4086377,0.7206665,-0.5769629,306,"2023-02-04T21:32:53.456Z"
43,0.4043042,0.73729,-0.5585156,306,"2023-02-04T21:33:54.018Z"
42,0.35141847,0.8325977,-0.44979247,306,"2023-02-04T21:34:54.580Z"
42,0.36644286,0.81214845,-0.47170654,306,"2023-02-04T21:35:55.142Z"
44,0.36493897,0.812251,-0.472605,306,"2023-02-04T21:36:55.705Z"
43,0.39258546,0.72956544,-0.57705325,306,"2023-02-04T21:37:56.267Z"
43,0.3746167,0.76988035,-0.5339966,306,"2023-02-04T21:38:56.829Z"
56,0.41284424,0.72880614,-0.56455076,306,"2023-02-04T21:39:57.391Z"
45,0.43065184,0.6882373,-0.60276365,306,"2023-02-04T21:40:57.954Z"
51,0.38476318,0.84206057,-0.39919922,306,"2023-02-04T21:41:58.516Z"
48,0.40479982,0.8346143,-0.39334962,306,"2023-02-04T21:42:59.078Z"
45,0.4123706,0.80500245,-0.44834718,306,"2023-02-04T21:43:59.640Z"
44,0.4139746,0.8317651,-0.39116454,306,"2023-02-04T21:45:00.203Z"
46,0.3696582,0.82331544,-0.43535644,306,"2023-02-04T21:46:00.765Z"
45,0.4109204,0.864812,-0.31526366,306,"2023-02-04T21:47:01.327Z"
51,0.4475708,0.75159425,0.45927003,306,"2023-02-04T21:48:01.889Z"
42,0.5462793,0.6346558,-0.5684839,306,"2023-02-04T21:49:02.452Z"
47,0.47141603,0.64174074,-0.62440675,306,"2023-02-04T21:50:03.014Z"
43,0.4132617,0.77276856,-0.5021191,306,"2023-02-04T21:51:03.576Z"
45,0.4086377,0.77536374,-0.5021387,306,"2023-02-04T21:52:04.138Z"
56,0.33267334,0.9539966,-0.06376709,306,"2023-02-04T21:53:04.701Z"
64,0.28608155,0.8452588,-0.42343506,306,"2023-02-04T21:54:05.263Z"
98,-0.2727832,0.956582,-0.15135254,306,"2023-02-04T21:55:05.824Z"
50,0.39635253,0.72330076,-0.5806323,306,"2023-02-04T21:56:06.387Z"
43,0.26537353,0.7489624,-0.61980957,306,"2023-02-04T21:57:06.950Z"
44,0.26140624,0.7532251,-0.6163599,306,"2023-02-04T21:58:07.512Z"
45,0.26926515,0.6970874,-0.67670166,306,"2023-02-04T21:59:08.074Z"
43,0.24954101,0.70677733,-0.6725293,306,"2023-02-04T22:00:08.636Z"
43,0.24125,0.71261716,-0.6693848,306,"2023-02-04T22:01:09.199Z"
64,-0.8560083,0.49693602,0.015275879,306,"2023-02-04T22:02:09.761Z"
62,-0.69028807,0.70611084,-0.013459473,306,"2023-02-04T22:03:10.323Z"
72,-0.8008008,0.5637256,0.036040038,306,"2023-02-04T22:04:10.885Z"
68,0.062609866,0.62305176,-0.796687,306,"2023-02-04T22:05:11.447Z"
62,-0.2307959,0.8768213,0.37020752,306,"2023-02-04T22:06:12.010Z"
72,0.36736327,-0.9298071,0.20371826,306,"2023-02-04T22:07:12.572Z"
44,0.35460448,-0.93268555,0.21092774,306,"2023-02-04T22:08:13.135Z"
42,0.3508545,-0.9333716,0.2141333,306,"2023-02-04T22:09:13.697Z"
41,0.3491162,-0.935,0.20914795,306,"2023-02-04T22:10:14.259Z"
41,0.3463745,-0.9376465,0.20248291,306,"2023-02-04T22:11:14.821Z"
43,0.3473413,-0.93640137,0.20461425,306,"2023-02-04T22:12:15.383Z"
41,0.3479663,-0.9371631,0.19989014,306,"2023-02-04T22:13:15.946Z"
53,0.58734864,0.1522583,-0.8166089,306,"2023-02-04T22:14:16.508Z"
54,0.079860836,-0.9796118,-0.25882813,306,"2023-02-04T22:15:17.070Z"
43,0.08579346,-0.98380613,-0.24391602,306,"2023-02-04T22:16:17.632Z"
65,-0.6210547,-0.22824463,0.7243042,306,"2023-02-04T22:17:18.195Z"
78,-0.5270337,-0.25579345,0.79743654,306,"2023-02-04T22:18:18.757Z"
44,-0.69221437,-0.2799121,0.61002195,306,"2023-02-04T22:19:19.319Z"
39,-0.7944702,0.57669675,0.0090771485,306,"2023-02-04T22:20:19.881Z"
37,-0.72325194,0.56575197,0.33892822,306,"2023-02-04T22:21:20.444Z"
40,-0.7237134,0.5664258,0.33826417,306,"2023-02-04T22:22:21.006Z"
39,-0.72100097,0.5668042,0.34351075,306,"2023-02-04T22:23:21.568Z"
42,-0.7209375,0.56868654,0.34078613,306,"2023-02-04T22:24:22.130Z"
38,-0.7214453,0.5664575,0.34189942,306,"2023-02-04T22:25:22.692Z"
42,-0.7192017,0.5683032,0.34544677,306,"2023-02-04T22:26:23.255Z"
37,-0.717002,0.56856203,0.349834,306,"2023-02-04T22:27:23.817Z"
37,-0.7159644,0.56965333,0.35162354,306,"2023-02-04T22:28:24.379Z"
36,-0.71563965,0.56929934,0.35171387,306,"2023-02-04T22:29:24.942Z"
40,-0.7195166,0.5674707,0.34694824,306,"2023-02-04T22:30:25.504Z"
35,-0.7166846,0.5689356,0.34976563,306,"2023-02-04T22:31:26.066Z"
36,-0.71046877,0.57962155,0.3473047,306,"2023-02-04T22:32:26.628Z"
35,-0.71065676,0.57923096,0.3457959,306,"2023-02-04T22:33:27.190Z"
36,-0.71064454,0.5797974,0.34574464,306,"2023-02-04T22:34:27.753Z"
33,-0.70936036,0.5805713,0.34794676,306,"2023-02-04T22:35:28.315Z"
37,-0.71033937,0.58029294,0.3456421,306,"2023-02-04T22:36:28.877Z"
35,-0.714707,0.5735718,0.34729248,306,"2023-02-04T22:37:29.439Z"
36,-0.71302736,0.5746362,0.34937257,306,"2023-02-04T22:38:30.002Z"
35,-0.7149854,0.57330567,0.346875,306,"2023-02-04T22:39:30.564Z"
34,-0.7142432,0.5749951,0.34581786,306,"2023-02-04T22:40:31.126Z"
35,-0.71191895,0.5762866,0.34833252,306,"2023-02-04T22:41:31.688Z"
35,-0.70714355,0.57853514,0.354458,306,"2023-02-04T22:42:32.250Z"
35,-0.70791507,0.5787109,0.3529126,306,"2023-02-04T22:43:32.813Z"
35,-0.7070337,0.57924074,0.35444093,306,"2023-02-04T22:44:33.375Z"
35,-0.7063843,0.57966065,0.35416016,306,"2023-02-04T22:45:33.937Z"
34,-0.7060376,0.5798023,0.35602784,306,"2023-02-04T22:46:34.500Z"
35,-0.7109814,0.5735376,0.35555175,306,"2023-02-04T22:47:35.062Z"
38,-0.71097165,0.5739087,0.35519776,306,"2023-02-04T22:48:35.624Z"
35,-0.7123242,0.57247806,0.35358155,306,"2023-02-04T22:49:36.186Z"
36,-0.7103662,0.57398194,0.35651612,306,"2023-02-04T22:50:36.748Z"
38,-0.7115991,0.57321286,0.35460204,306,"2023-02-04T22:51:37.311Z"
38,-0.70884764,0.5741357,0.35774413,306,"2023-02-04T22:52:37.873Z"
36,-0.7086499,0.574917,0.3578589,306,"2023-02-04T22:53:38.443Z"
39,-0.7516773,-0.055668946,0.6272949,306,"2023-02-04T22:54:39.010Z"
42,-0.7463428,-0.058024902,0.6342041,306,"2023-02-04T22:55:39.572Z"
37,-0.74583006,-0.0597168,0.63528806,306,"2023-02-04T22:56:40.134Z"
38,-0.74554443,-0.061025392,0.6352905,306,"2023-02-04T22:57:40.696Z"
40,-0.7440674,-0.061025392,0.63690186,306,"2023-02-04T22:58:41.259Z"
40,-0.7443262,-0.06241455,0.63621336,306,"2023-02-04T22:59:41.821Z"
41,-0.74431884,-0.06297608,0.6364868,306,"2023-02-04T23:00:42.383Z"
39,-0.7428174,-0.063498534,0.63822263,306,"2023-02-04T23:01:42.945Z"
37,-0.7430542,-0.064331055,0.63705564,306,"2023-02-04T23:02:43.507Z"
37,-0.74341553,-0.06463135,0.636543,306,"2023-02-04T23:03:44.070Z"
38,-0.74043703,-0.061984863,0.6412109,306,"2023-02-04T23:04:44.632Z"
36,-0.7400049,-0.06243164,0.6421729,306,"2023-02-04T23:05:45.194Z"
37,-0.7399927,-0.06325195,0.64209473,306,"2023-02-04T23:06:45.756Z"
39,-0.74022216,-0.06383789,0.6413623,306,"2023-02-04T23:07:46.319Z"
39,-0.73960936,-0.06388428,0.64053464,306,"2023-02-04T23:08:46.881Z"
36,-0.73898435,-0.06347168,0.64260256,306,"2023-02-04T23:09:47.443Z"
38,-0.7387793,-0.06419922,0.6431299,306,"2023-02-04T23:10:48.005Z"
37,-0.7392163,-0.06459717,0.64205813,306,"2023-02-04T23:11:48.567Z"
40,-0.7380518,-0.0639624,0.6425586,306,"2023-02-04T23:12:49.138Z"
37,-0.73811525,-0.06400146,0.6438745,306,"2023-02-04T23:13:49.704Z"
37,-0.73883545,-0.064973146,0.64256835,306,"2023-02-04T23:14:50.266Z"
39,-0.7381958,-0.06456055,0.6435376,306,"2023-02-04T23:15:50.829Z"
39,-0.7371069,-0.06465332,0.64397705,306,"2023-02-04T23:16:51.391Z"
39,-0.7380151,-0.06378418,0.64351565,306,"2023-02-04T23:17:51.953Z"
40,-0.7373218,-0.06347656,0.6445947,306,"2023-02-04T23:18:52.515Z"
39,-0.73824954,-0.064851075,0.64276123,306,"2023-02-04T23:19:53.078Z"
41,-0.7388501,-0.0650708,0.6427075,306,"2023-02-04T23:20:53.640Z"
40,-0.7374756,-0.0644458,0.64474124,306,"2023-02-04T23:21:54.202Z"
42,-0.73808837,-0.06459229,0.6434668,306,"2023-02-04T23:22:54.764Z"
45,0.6077173,0.109748535,0.7991431,306,"2023-02-04T23:23:55.326Z"
37,0.6003003,0.12051025,0.8046216,306,"2023-02-04T23:24:55.889Z"
47,0.5782715,-0.38805175,0.74062014,306,"2023-02-04T23:25:56.451Z"
47,0.5743188,-0.3864917,0.7434497,306,"2023-02-04T23:26:57.013Z"
45,0.57297605,-0.38566408,0.74495363,306,"2023-02-04T23:27:57.575Z"
47,0.57272947,-0.38604003,0.7452881,306,"2023-02-04T23:28:58.137Z"
46,0.5724853,-0.38454834,0.74660647,306,"2023-02-04T23:29:58.700Z"
50,0.571958,-0.38505858,0.7466455,306,"2023-02-04T23:30:59.262Z"
49,0.5720923,-0.38553223,0.74656737,306,"2023-02-04T23:31:59.832Z"
49,0.57140136,-0.38453126,0.7465381,306,"2023-02-04T23:33:00.399Z"
61,0.5892822,-0.018359374,0.82291746,306,"2023-02-04T23:34:00.961Z"
44,0.5845874,-0.019553222,0.8262817,306,"2023-02-04T23:35:01.523Z"
48,0.5846509,-0.02295166,0.8259522,306,"2023-02-04T23:36:02.085Z"
45,0.5843042,-0.023405762,0.82606447,306,"2023-02-04T23:37:02.648Z"
47,0.5822168,-0.024213867,0.8272974,306,"2023-02-04T23:38:03.210Z"
52,0.5858716,-0.020625,0.8248389,306,"2023-02-04T23:39:03.772Z"
45,0.577312,-0.020151367,0.8309473,306,"2023-02-04T23:40:04.334Z"
43,0.57820314,-0.027939454,0.830061,306,"2023-02-04T23:41:04.896Z"
42,0.5885547,-0.038154297,0.8226245,306,"2023-02-04T23:42:05.459Z"
52,0.5933423,-0.045842286,0.81911623,306,"2023-02-04T23:43:06.021Z"
45,0.58871824,-0.04190918,0.8224634,306,"2023-02-04T23:44:06.583Z"
45,0.58866453,-0.04184082,0.8226587,306,"2023-02-04T23:45:07.146Z"
47,0.58725584,-0.04008789,0.82350343,306,"2023-02-04T23:46:07.708Z"
50,0.58704835,-0.039733887,0.8237158,306,"2023-02-04T23:47:08.270Z"
45,0.5884448,-0.041066896,0.82263184,306,"2023-02-04T23:48:08.832Z"
48,0.5870923,-0.04008545,0.82367676,306,"2023-02-04T23:49:09.394Z"
50,0.5879712,-0.04067383,0.8232593,306,"2023-02-04T23:50:09.957Z"
45,0.5875171,-0.03984131,0.8233887,306,"2023-02-04T23:51:10.527Z"
65,-0.67191404,-0.08661377,0.7110498,306,"2023-02-04T23:52:11.094Z"
42,-0.6691113,-0.09981933,0.7122778,306,"2023-02-04T23:53:11.656Z"
44,-0.6670874,-0.1062207,0.71368164,306,"2023-02-04T23:54:12.218Z"
46,-0.6669385,-0.112001956,0.7133179,306,"2023-02-04T23:55:12.780Z"
43,-0.6667187,-0.114138186,0.71347165,306,"2023-02-04T23:56:13.342Z"
42,-0.66597414,-0.117805175,0.7142871,306,"2023-02-04T23:57:13.905Z"
42,-0.6671387,-0.11658203,0.7128467,306,"2023-02-04T23:58:14.467Z"
41,-0.6650464,-0.121081546,0.7139868,306,"2023-02-04T23:59:15.029Z"
42,-0.66717285,-0.11781738,0.7121484,306,"2023-02-05T00:00:00.210Z"
43,-0.6650732,-0.1221582,0.71421385,306,"2023-02-05T00:01:00.772Z"
39,-0.66620606,-0.11842773,0.7124463,306,"2023-02-05T00:02:01.335Z"
41,-0.66742676,-0.11995117,0.7118506,306,"2023-02-05T00:03:01.897Z"
41,-0.66507566,-0.12356445,0.7139478,306,"2023-02-05T00:04:02.459Z"
50,-0.7187183,-0.31973878,0.59716797,306,"2023-02-05T00:05:03.021Z"
46,-0.52601564,0.46909425,0.68449706,306,"2023-02-05T00:06:03.583Z"
44,-0.52536863,0.46930176,0.68379396,306,"2023-02-05T00:07:04.146Z"
43,-0.5242505,0.47201172,0.68263674,306,"2023-02-05T00:08:04.708Z"
41,-0.5253247,0.4726416,0.6815698,306,"2023-02-05T00:09:05.270Z"
46,-0.52901614,0.47296143,0.6774414,306,"2023-02-05T00:10:05.833Z"
43,-0.5302979,0.474021,0.6766504,306,"2023-02-05T00:11:06.407Z"
40,-0.52845705,0.47643065,0.6750757,306,"2023-02-05T00:12:06.969Z"
43,-0.5252979,0.47880614,0.6778638,306,"2023-02-05T00:13:07.531Z"
42,-0.52625734,0.47833252,0.6764282,306,"2023-02-05T00:14:08.094Z"
39,-0.52410644,0.4786621,0.67839843,306,"2023-02-05T00:15:08.656Z"
39,-0.5287769,0.4784839,0.6750635,306,"2023-02-05T00:16:09.218Z"
41,-0.52282715,0.48060304,0.67781496,306,"2023-02-05T00:17:09.766Z"
45,-0.5279248,0.48,0.6734448,306,"2023-02-05T00:18:10.328Z"
38,-0.5293896,0.45517823,0.6905322,306,"2023-02-05T00:19:10.890Z"
43,-0.52710694,0.4549414,0.69194824,306,"2023-02-05T00:20:11.452Z"
39,-0.5326221,0.4541577,0.6883911,306,"2023-02-05T00:21:12.014Z"
55,0.59981203,0.17051269,0.79475343,306,"2023-02-05T00:22:12.577Z"
44,0.594751,0.17371581,0.7984375,306,"2023-02-05T00:23:13.139Z"
39,0.60972166,0.18818359,0.78441405,306,"2023-02-05T00:24:13.701Z"
43,0.60751706,0.18810302,0.7857227,306,"2023-02-05T00:25:14.263Z"
41,0.6090161,0.21017334,0.7790332,306,"2023-02-05T00:26:14.826Z"
46,0.5978516,0.2386084,0.77826416,306,"2023-02-05T00:27:15.388Z"
42,0.5969751,0.2372583,0.77962893,306,"2023-02-05T00:28:15.950Z"
42,0.5967236,0.23855713,0.77936035,306,"2023-02-05T00:29:16.512Z"
45,0.5982764,0.23823242,0.7787915,306,"2023-02-05T00:30:17.087Z"
44,0.6072876,0.19555175,0.78374267,306,"2023-02-05T00:31:17.649Z"
44,0.5403101,0.69844484,0.4831299,306,"2023-02-05T00:32:18.211Z"
57,0.6014673,0.2945923,0.7556079,306,"2023-02-05T00:33:18.774Z"
40,0.5967407,0.29378662,0.7585498,306,"2023-02-05T00:34:19.336Z"
47,0.6486865,0.009453125,0.77903074,306,"2023-02-05T00:35:19.898Z"
43,0.6418286,0.028000489,0.7834619,306,"2023-02-05T00:36:20.460Z"
51,0.5232983,-0.7690039,0.42206544,306,"2023-02-05T00:37:21.022Z"
47,0.519646,-0.77149904,0.42026857,306,"2023-02-05T00:38:21.585Z"
55,0.5525317,-0.35321534,0.7753735,306,"2023-02-05T00:39:22.147Z"
46,0.55094236,-0.33926025,0.78158206,306,"2023-02-05T00:40:22.709Z"
44,0.54522705,-0.334895,0.7870679,306,"2023-02-05T00:41:23.271Z"
47,0.571709,-0.29981935,0.7831543,306,"2023-02-05T00:42:23.834Z"
45,0.58129394,-0.30725342,0.773562,306,"2023-02-05T00:43:24.396Z"
57,0.54067385,-0.13756348,0.84417725,306,"2023-02-05T00:44:24.958Z"
37,0.54635257,-0.116220705,0.84389895,306,"2023-02-05T00:45:25.520Z"
43,0.5409399,-0.114206545,0.84705323,306,"2023-02-05T00:46:26.083Z"
41,0.54503417,-0.08916016,0.84697753,306,"2023-02-05T00:47:26.645Z"
43,0.5502515,-0.10741943,0.8421924,306,"2023-02-05T00:48:27.207Z"
40,0.53430176,-0.08269531,0.85489255,306,"2023-02-05T00:49:27.781Z"
42,0.5334619,-0.07992187,0.85487306,306,"2023-02-05T00:50:28.344Z"
46,0.531853,-0.10638183,0.85408205,306,"2023-02-05T00:51:28.906Z"
41,0.5358667,-0.10047607,0.85196286,306,"2023-02-05T00:52:29.468Z"
44,0.5334204,-0.100759275,0.85410154,306,"2023-02-05T00:53:30.031Z"
50,0.3198413,-0.3239038,0.896355,306,"2023-02-05T00:54:30.593Z"
39,0.6260083,-0.033186033,0.79652345,306,"2023-02-05T00:55:31.155Z"
43,0.5728125,-0.16969971,0.8183374,306,"2023-02-05T00:56:31.717Z"
42,0.5720264,-0.16888183,0.8191089,306,"2023-02-05T00:57:32.279Z"
40,0.5712427,-0.12480957,0.82700926,306,"2023-02-05T00:58:32.842Z"
40,0.5728345,-0.12493164,0.8263233,306,"2023-02-05T00:59:33.404Z"
43,0.5724243,-0.12303955,0.82655764,306,"2023-02-05T01:00:33.966Z"
40,0.56011474,-0.09751221,0.8370508,306,"2023-02-05T01:01:34.528Z"
46,0.56082517,-0.12825927,0.83364505,306,"2023-02-05T01:02:35.090Z"
44,0.5640454,-0.119782716,0.83214355,306,"2023-02-05T01:03:35.653Z"
45,0.5607886,-0.11757813,0.83497804,306,"2023-02-05T01:04:36.215Z"
46,0.56181395,-0.118642576,0.8343799,306,"2023-02-05T01:05:36.777Z"
48,0.5618213,-0.118144535,0.8338672,306,"2023-02-05T01:06:37.339Z"
48,0.5633911,-0.11908447,0.8328369,306,"2023-02-05T01:07:37.902Z"
52,0.56595457,-0.11786621,0.830603,306,"2023-02-05T01:08:38.476Z"
51,0.56346434,-0.11797119,0.8325952,306,"2023-02-05T01:09:39.038Z"
50,0.5649048,-0.11829101,0.8315503,306,"2023-02-05T01:10:39.601Z"
57,0.31142822,0.8929248,0.3899536,306,"2023-02-05T01:11:40.163Z"
40,0.24078614,0.7956543,0.55240476,306,"2023-02-05T01:12:40.725Z"
43,0.23884277,0.79807127,0.5506592,306,"2023-02-05T01:13:41.287Z"
45,0.23654297,0.7997339,0.54857177,306,"2023-02-05T01:14:41.849Z"
48,0.2342163,0.7986133,0.5509448,306,"2023-02-05T01:15:42.412Z"
43,0.6478882,0.2065796,0.7488501,306,"2023-02-05T01:16:42.974Z"
47,0.64533204,0.2045752,0.7516919,306,"2023-02-05T01:17:43.536Z"
47,0.6445972,0.2044043,0.75289553,306,"2023-02-05T01:18:44.098Z"
42,0.6215747,0.21000244,0.76906985,306,"2023-02-05T01:19:44.661Z"
45,0.62278074,0.20799072,0.7685791,306,"2023-02-05T01:20:45.223Z"
42,0.62168455,0.20763671,0.7698779,306,"2023-02-05T01:21:45.785Z"
39,0.6213745,0.2059546,0.7700586,306,"2023-02-05T01:22:46.347Z"
47,0.6206934,0.20735352,0.77060544,306,"2023-02-05T01:23:46.909Z"
44,0.6195703,0.20794189,0.7711426,306,"2023-02-05T01:24:47.472Z"
44,0.6209741,0.20570312,0.7708789,306,"2023-02-05T01:25:48.034Z"
42,0.62013674,0.20481445,0.77176756,306,"2023-02-05T01:26:48.596Z"
46,0.6196411,0.2053711,0.7717969,306,"2023-02-05T01:27:49.171Z"
41,0.6186865,0.2054248,0.77252686,306,"2023-02-05T01:28:49.733Z"
57,0.009328613,-0.87335694,-0.45523927,306,"2023-02-05T01:29:50.295Z"
43,0.03651123,-0.974126,-0.28128174,306,"2023-02-05T01:30:50.857Z"
41,0.036169432,-0.9738086,-0.28484374,306,"2023-02-05T01:31:51.420Z"
44,0.036376953,-0.9731592,-0.28683594,306,"2023-02-05T01:32:51.982Z"
44,0.035517577,-0.97365725,-0.2857178,306,"2023-02-05T01:33:52.544Z"
46,0.03552246,-0.9735083,-0.28739747,306,"2023-02-05T01:34:53.106Z"
45,0.035493165,-0.9730933,-0.28781983,306,"2023-02-05T01:35:53.668Z"
46,0.03561279,-0.97358644,-0.28853515,306,"2023-02-05T01:36:54.231Z"
40,0.035231933,-0.972666,-0.2906128,306,"2023-02-05T01:37:54.793Z"
45,0.035251465,-0.97216064,-0.2907251,306,"2023-02-05T01:38:55.355Z"
45,0.03568115,-0.9723315,-0.29156983,306,"2023-02-05T01:39:55.917Z"
43,0.03543457,-0.9721753,-0.2920679,306,"2023-02-05T01:40:56.480Z"
45,0.03512207,-0.9724438,-0.29216552,306,"2023-02-05T01:41:57.042Z"
44,0.034768067,-0.9722461,-0.29311278,306,"2023-02-05T01:42:57.604Z"
45,0.037919924,-0.9855371,-0.2426245,306,"2023-02-05T01:43:58.167Z"
49,0.03847412,-0.98573977,-0.24163574,306,"2023-02-05T01:44:58.729Z"
44,0.03781738,-0.9864331,-0.24052979,306,"2023-02-05T01:45:59.291Z"
46,0.03850342,-0.9865259,-0.23934083,306,"2023-02-05T01:46:59.866Z"
48,0.04661865,-0.99000245,-0.22299805,306,"2023-02-05T01:48:00.428Z"
40,0.72975343,-0.276709,0.6516309,306,"2023-02-05T01:49:00.990Z"
45,0.7277881,-0.29621094,0.646626,306,"2023-02-05T01:50:01.552Z"
43,0.7269824,-0.30759767,0.64177,306,"2023-02-05T01:51:02.115Z"
46,0.5068506,0.8662354,0.071179196,306,"2023-02-05T01:52:02.677Z"
44,0.5076831,0.86565673,0.07108643,306,"2023-02-05T01:53:03.239Z"
44,0.51403075,0.8631421,0.06862793,306,"2023-02-05T01:54:03.802Z"
45,0.51210696,0.8634497,0.0655957,306,"2023-02-05T01:55:04.364Z"
44,0.51390135,0.863291,0.06583008,306,"2023-02-05T01:56:04.926Z"
42,0.5134668,0.86296386,0.064936526,306,"2023-02-05T01:57:05.488Z"
47,0.51196533,0.86356443,0.06560791,306,"2023-02-05T01:58:06.050Z"
41,0.5119214,0.8641113,0.06675049,306,"2023-02-05T01:59:06.613Z"
46,0.51246583,0.86359376,0.06647949,306,"2023-02-05T02:00:07.175Z"
46,0.51187015,0.86323243,0.066689454,306,"2023-02-05T02:01:07.737Z"
48,0.5128003,0.8630737,0.0650586,306,"2023-02-05T02:02:08.299Z"
45,0.5126123,0.86379886,0.06614502,306,"2023-02-05T02:03:08.862Z"
41,0.5122925,0.8635205,0.06567383,306,"2023-02-05T02:04:09.424Z"
45,0.5137866,0.86339355,0.06565186,306,"2023-02-05T02:05:09.986Z"
44,0.51365966,0.86300296,0.06537842,306,"2023-02-05T02:06:10.561Z"
40,0.51252687,0.8637793,0.06575439,306,"2023-02-05T02:07:11.123Z"
41,0.5131299,0.8632837,0.06581787,306,"2023-02-05T02:08:11.685Z"
46,0.51266843,0.8639282,0.06440918,306,"2023-02-05T02:09:12.247Z"
42,0.51322997,0.86321044,0.06479492,306,"2023-02-05T02:10:12.810Z"
39,0.51312256,0.86285156,0.062941894,306,"2023-02-05T02:11:13.372Z"
44,0.5131152,0.86383545,0.063186035,306,"2023-02-05T02:12:13.934Z"
41,0.5128296,0.86381835,0.06388916,306,"2023-02-05T02:13:14.496Z"
49,0.61681885,-0.3813916,0.7139087,306,"2023-02-05T02:14:15.058Z"
39,0.6144922,-0.3857373,0.7128735,306,"2023-02-05T02:15:15.621Z"
46,0.029272461,-0.47617677,-0.89210206,306,"2023-02-05T02:16:16.183Z"
47,0.027912598,-0.4099463,-0.92496336,306,"2023-02-05T02:17:16.745Z"
45,0.026660156,-0.40966308,-0.92552245,306,"2023-02-05T02:18:17.307Z"
43,0.02375,-0.41391847,-0.9237256,306,"2023-02-05T02:19:17.869Z"
47,0.023017578,-0.41354004,-0.92366457,306,"2023-02-05T02:20:18.432Z"
41,0.022761231,-0.41243896,-0.924021,306,"2023-02-05T02:21:18.994Z"
40,0.022233887,-0.41292968,-0.92374265,306,"2023-02-05T02:22:19.556Z"
44,0.02272461,-0.4123047,-0.92393064,306,"2023-02-05T02:23:20.118Z"
46,0.022058105,-0.41272217,-0.9238159,306,"2023-02-05T02:24:20.681Z"
44,0.021894531,-0.41277343,-0.9242285,306,"2023-02-05T02:25:21.251Z"
43,0.021467285,-0.41226318,-0.9246387,306,"2023-02-05T02:26:21.818Z"
43,0.021291504,-0.41131592,-0.924773,306,"2023-02-05T02:27:22.380Z"
42,0.021865234,-0.41198242,-0.9244043,306,"2023-02-05T02:28:22.942Z"
44,0.021191407,-0.41157958,-0.92450684,306,"2023-02-05T02:29:23.504Z"
43,0.02112793,-0.41094482,-0.9246387,306,"2023-02-05T02:30:24.067Z"
45,0.021540528,-0.41504884,-0.9227564,306,"2023-02-05T02:31:24.629Z"
43,0.018737793,-0.41333008,-0.923811,306,"2023-02-05T02:32:25.191Z"
40,0.018911133,-0.4140381,-0.9234619,306,"2023-02-05T02:33:25.753Z"
45,0.018601075,-0.41383058,-0.92323,306,"2023-02-05T02:34:26.315Z"
43,0.018999023,-0.41424072,-0.9230737,306,"2023-02-05T02:35:26.878Z"
45,0.017102052,-0.4120703,-0.9242749,306,"2023-02-05T02:36:27.440Z"
54,0.60905516,-0.56998044,0.5854053,306,"2023-02-05T02:37:28.002Z"
44,0.60483885,-0.56481445,0.5939453,306,"2023-02-05T02:38:28.564Z"
50,0.51124513,-0.50102293,0.7209912,306,"2023-02-05T02:39:29.126Z"
57,0.5978735,0.29447755,0.75756836,306,"2023-02-05T02:40:29.689Z"
39,0.574729,0.061708983,0.82919675,306,"2023-02-05T02:41:30.251Z"
46,0.50083494,0.39990234,0.77637696,306,"2023-02-05T02:42:30.813Z"
41,0.5005591,0.3975049,0.7777246,306,"2023-02-05T02:43:31.375Z"
41,0.4996997,0.39684814,0.7784497,306,"2023-02-05T02:44:31.946Z"
39,0.49793702,0.39606935,0.7797656,306,"2023-02-05T02:45:32.512Z"
41,0.4970508,0.39344484,0.7815283,306,"2023-02-05T02:46:33.074Z"
42,0.49720705,0.3931494,0.7820239,306,"2023-02-05T02:47:33.637Z"
43,0.49732912,0.39373535,0.7820776,306,"2023-02-05T02:48:34.199Z"
41,0.49695557,0.39394042,0.7818164,306,"2023-02-05T02:49:34.761Z"
42,0.4963623,0.3931665,0.78295165,306,"2023-02-05T02:50:35.323Z"
46,0.49628174,0.39284667,0.782793,306,"2023-02-05T02:51:35.886Z"
44,0.4000879,0.37372804,0.8415186,306,"2023-02-05T02:52:36.448Z"
47,0.4012744,0.3759497,0.8404224,306,"2023-02-05T02:53:37.010Z"
47,0.4038208,0.3767627,0.8386108,306,"2023-02-05T02:54:37.573Z"
45,0.40548095,0.37415284,0.8395044,306,"2023-02-05T02:55:38.135Z"
45,0.40480956,0.3777124,0.8380176,306,"2023-02-05T02:56:38.696Z"
41,0.40591797,0.38026124,0.83696777,306,"2023-02-05T02:57:39.259Z"
50,0.40634766,0.37621337,0.83797365,306,"2023-02-05T02:58:39.821Z"
46,0.40483886,0.38328612,0.8352441,306,"2023-02-05T02:59:40.384Z"
46,0.40679443,0.3792798,0.83701414,306,"2023-02-05T03:00:40.946Z"
43,0.40951172,0.4944043,0.7611914,306,"2023-02-05T03:01:41.508Z"
42,0.34031495,-0.94328123,0.1885669,306,"2023-02-05T03:02:42.070Z"
43,0.340896,-0.94332767,0.18995605,306,"2023-02-05T03:03:42.641Z"
43,0.34065917,-0.942898,0.19070557,306,"2023-02-05T03:04:43.207Z"
44,0.34134033,-0.9424707,0.19251953,306,"2023-02-05T03:05:43.769Z"
45,0.34041992,-0.9428052,0.19262451,306,"2023-02-05T03:06:44.331Z"
46,0.34076416,-0.94257325,0.19290283,306,"2023-02-05T03:07:44.894Z"
53,0.34150147,-0.94469726,0.18042968,306,"2023-02-05T03:08:45.456Z"
44,0.34208983,-0.9445825,0.18093994,306,"2023-02-05T03:09:46.018Z"
45,0.3415332,-0.9440332,0.18140137,306,"2023-02-05T03:10:46.580Z"
44,0.34177735,-0.9446338,0.1784375,306,"2023-02-05T03:11:47.143Z"
52,0.34277588,-0.9438623,0.18306884,306,"2023-02-05T03:12:47.705Z"
46,0.3438257,-0.9432422,0.1852002,306,"2023-02-05T03:13:48.267Z"
53,0.34354737,-0.9431714,0.18570313,306,"2023-02-05T03:14:48.829Z"
61,0.34401366,-0.9426001,0.1870874,306,"2023-02-05T03:15:49.392Z"
61,0.3465869,-0.9410596,0.1897168,306,"2023-02-05T03:16:49.954Z"
50,0.34694335,-0.9406836,0.19087403,306,"2023-02-05T03:17:50.516Z"
70,0.5640088,0.34272707,0.7621094,306,"2023-02-05T03:18:51.078Z"
45,0.559021,0.35220948,0.7612549,306,"2023-02-05T03:19:51.640Z"
41,0.5586499,0.35742432,0.75835204,306,"2023-02-05T03:20:52.203Z"
44,0.54959226,0.3654663,0.76120603,306,"2023-02-05T03:21:52.765Z"
43,0.54871094,0.36911622,0.76035887,306,"2023-02-05T03:22:53.335Z"
42,0.5357568,0.35376465,0.77720946,306,"2023-02-05T03:23:53.902Z"
42,0.539895,0.3631958,0.76948243,306,"2023-02-05T03:24:54.464Z"
57,0.62561035,-0.0063134767,0.79641604,306,"2023-02-05T03:25:55.026Z"
36,0.6278662,-0.0018457031,0.7950098,306,"2023-02-05T03:26:55.589Z"
43,0.628313,-0.00109375,0.79410154,306,"2023-02-05T03:27:56.151Z"
38,0.6275928,-0.011564941,0.7952124,306,"2023-02-05T03:28:56.713Z"
44,0.62677246,-0.013095703,0.796145,306,"2023-02-05T03:29:57.275Z"
41,0.6248584,-0.014941406,0.7971655,306,"2023-02-05T03:30:57.837Z"
45,0.6245654,-0.015292969,0.7978247,306,"2023-02-05T03:31:58.400Z"
46,0.6274536,-0.016948242,0.7953369,306,"2023-02-05T03:32:58.962Z"
46,0.6258716,-0.018190918,0.7964551,306,"2023-02-05T03:33:59.524Z"
68,-0.7753784,0.28685546,0.5231665,306,"2023-02-05T03:35:00.086Z"
44,-0.77211183,0.27645752,0.53424805,306,"2023-02-05T03:36:00.648Z"
46,-0.77417725,0.27672607,0.53068846,306,"2023-02-05T03:37:01.211Z"
45,-0.4194922,0.595459,0.6302466,306,"2023-02-05T03:38:01.773Z"
41,-0.68593997,0.67245847,-0.2256836,306,"2023-02-05T03:39:02.335Z"
39,-0.6794507,0.68261474,-0.21794434,306,"2023-02-05T03:40:02.897Z"
38,-0.6819092,0.67907226,-0.21956299,306,"2023-02-05T03:41:03.460Z"
40,-0.6788599,0.6830322,-0.2156836,306,"2023-02-05T03:42:04.030Z"
42,-0.6769946,0.6851392,-0.21309814,306,"2023-02-05T03:43:04.597Z"
42,-0.6782715,0.68483156,-0.21371093,306,"2023-02-05T03:44:05.159Z"
44,-0.676521,0.68590087,-0.2122119,306,"2023-02-05T03:45:05.721Z"
43,-0.67790526,0.6846338,-0.21322998,306,"2023-02-05T03:46:06.283Z"
49,-0.6809619,0.6813696,-0.21445313,306,"2023-02-05T03:47:06.846Z"
43,-0.6758643,0.6875293,-0.20988037,306,"2023-02-05T03:48:07.408Z"
45,-0.6743286,0.68979245,-0.20832519,306,"2023-02-05T03:49:07.970Z"
41,-0.67575926,0.686333,-0.21045166,306,"2023-02-05T03:50:08.532Z"
42,-0.67770994,0.68484133,-0.21156494,306,"2023-02-05T03:51:09.094Z"
43,-0.67803466,0.6846387,-0.2111206,306,"2023-02-05T03:52:09.657Z"
42,-0.6755591,0.68863523,-0.208479,306,"2023-02-05T03:53:10.219Z"
42,-0.67634034,0.6859619,-0.21,306,"2023-02-05T03:54:10.781Z"
41,-0.6744946,0.68979245,-0.20715576,306,"2023-02-05T03:55:11.344Z"
45,-0.67274415,0.6913403,-0.20389648,306,"2023-02-05T03:56:11.906Z"
42,-0.67574465,0.6881348,-0.20765625,306,"2023-02-05T03:57:12.468Z"
41,-0.6729175,0.69166017,-0.20517822,306,"2023-02-05T03:58:13.030Z"
43,-0.6716919,0.69312745,-0.20416504,306,"2023-02-05T03:59:13.592Z"
42,-0.67254394,0.69188476,-0.20485839,306,"2023-02-05T04:00:14.155Z"
42,-0.67227054,0.6923389,-0.2041333,306,"2023-02-05T04:01:14.725Z"
42,-0.675918,0.6881177,-0.2064624,306,"2023-02-05T04:02:15.292Z"
40,-0.672456,0.6937573,-0.20187744,306,"2023-02-05T04:03:15.854Z"
39,-0.6715259,0.6940796,-0.20254639,306,"2023-02-05T04:04:16.416Z"
40,-0.6713379,0.69340575,-0.20269775,306,"2023-02-05T04:05:16.978Z"
41,-0.67134523,0.69441897,-0.20239747,306,"2023-02-05T04:06:17.541Z"
44,-0.6732544,0.6915552,-0.20458251,306,"2023-02-05T04:07:18.103Z"
44,-0.6731445,0.690398,-0.205,306,"2023-02-05T04:08:18.665Z"
39,-0.67100585,0.6945215,-0.20185302,306,"2023-02-05T04:09:19.227Z"
41,-0.6704785,0.69561523,-0.20077148,306,"2023-02-05T04:10:19.789Z"
38,-0.67000735,0.69516355,-0.20126465,306,"2023-02-05T04:11:20.352Z"
40,-0.67482424,0.69003415,-0.20672363,306,"2023-02-05T04:12:20.914Z"
39,-0.67000735,0.6957275,-0.2010791,306,"2023-02-05T04:13:21.476Z"
41,-0.6709668,0.69436765,-0.20187011,306,"2023-02-05T04:14:22.038Z"
39,-0.67072755,0.6945459,-0.20174317,306,"2023-02-05T04:15:22.601Z"
39,-0.6696484,0.6960962,-0.20108886,306,"2023-02-05T04:16:23.163Z"
44,-0.67056394,0.69394773,-0.20391357,306,"2023-02-05T04:17:23.725Z"
41,-0.66897947,0.6971924,-0.20136963,306,"2023-02-05T04:18:24.287Z"
42,-0.6717725,0.69298583,-0.20362304,306,"2023-02-05T04:19:24.849Z"
43,-0.66861814,0.6975977,-0.20147705,306,"2023-02-05T04:20:25.420Z"
41,-0.6686597,0.69746095,-0.20051025,306,"2023-02-05T04:21:25.986Z"
44,0.50251955,0.24748047,0.83757323,306,"2023-02-05T04:22:26.549Z"
50,0.63843995,0.21261474,0.75528806,306,"2023-02-05T04:23:27.111Z"
53,0.641604,0.15286621,0.7677661,306,"2023-02-05T04:24:27.673Z"
43,0.63999265,0.15786377,0.7674487,306,"2023-02-05T04:25:28.235Z"
47,0.6384668,0.16149414,0.7678613,306,"2023-02-05T04:26:28.798Z"
46,0.63766116,0.16092041,0.76849854,306,"2023-02-05T04:27:29.360Z"
44,0.6369409,0.16094238,0.76966554,306,"2023-02-05T04:28:29.922Z"
47,0.63709474,0.16173828,0.7687256,306,"2023-02-05T04:29:30.484Z"
42,0.6357788,0.16105957,0.77011716,306,"2023-02-05T04:30:31.046Z"
43,0.6355005,0.16028321,0.77053714,306,"2023-02-05T04:31:31.609Z"
46,0.6354199,0.16162598,0.7700928,306,"2023-02-05T04:32:32.171Z"
42,0.6353345,0.16044189,0.7703662,306,"2023-02-05T04:33:32.733Z"
44,0.6356567,0.16682373,0.7693286,306,"2023-02-05T04:34:33.295Z"
44,0.6350586,0.16688232,0.769812,306,"2023-02-05T04:35:33.858Z"
45,0.6350586,0.16609375,0.7697046,306,"2023-02-05T04:36:34.420Z"
44,0.63484377,0.16590331,0.7700977,306,"2023-02-05T04:37:34.982Z"
46,0.63403565,0.16539063,0.77082765,306,"2023-02-05T04:38:35.544Z"
48,0.6340112,0.16499023,0.77054685,306,"2023-02-05T04:39:36.115Z"
45,0.6331714,0.165271,0.7712964,306,"2023-02-05T04:40:36.681Z"
43,0.6332642,0.16651124,0.7713403,306,"2023-02-05T04:41:37.243Z"
48,0.6333935,0.17183837,0.7697485,306,"2023-02-05T04:42:37.806Z"
45,0.6323022,0.17047608,0.77077883,306,"2023-02-05T04:43:38.368Z"
43,0.63260007,0.17031983,0.77078366,306,"2023-02-05T04:44:38.930Z"
49,0.63144284,0.15818359,0.77483886,306,"2023-02-05T04:45:39.492Z"
48,0.6307007,0.15763183,0.7752075,306,"2023-02-05T04:46:40.054Z"
47,0.6295117,0.15715332,0.77581054,306,"2023-02-05T04:47:40.617Z"
44,0.62966067,0.15719238,0.7767041,306,"2023-02-05T04:48:41.179Z"
49,0.5157202,-0.39185303,0.7805029,306,"2023-02-05T04:49:41.741Z"
42,0.61924803,-0.20213379,0.7788159,306,"2023-02-05T04:50:42.303Z"
48,0.6167847,-0.20226318,0.7807715,306,"2023-02-05T04:51:42.866Z"
45,0.616084,-0.20231201,0.7807788,306,"2023-02-05T04:52:43.428Z"
39,0.6075684,0.14990479,0.79346436,306,"2023-02-05T04:53:43.990Z"
49,0.60798585,0.15302734,0.7930127,306,"2023-02-05T04:54:44.552Z"
47,0.60808104,0.152583,0.792854,306,"2023-02-05T04:55:45.115Z"
44,0.60017335,0.15482178,0.79825926,306,"2023-02-05T04:56:45.677Z"
41,0.6005786,0.1428296,0.80007327,306,"2023-02-05T04:57:46.239Z"
44,0.59993166,0.14397217,0.80066407,306,"2023-02-05T04:58:46.801Z"
51,0.59976804,0.14228028,0.80121094,306,"2023-02-05T04:59:47.376Z"
50,0.30142823,-0.96047366,-0.16911866,306,"2023-02-05T05:00:47.938Z"
42,0.38943848,-0.9447949,0.0010302734,306,"2023-02-05T05:01:48.500Z"
43,0.38816163,-0.9452051,0.0026733398,306,"2023-02-05T05:02:49.063Z"
45,0.38825685,-0.9456665,-0.0001977539,306,"2023-02-05T05:03:49.625Z"
51,0.38799804,-0.9456421,-0.0023413086,306,"2023-02-05T05:04:50.187Z"
50,0.06470947,-0.9821655,-0.25264892,306,"2023-02-05T05:05:50.749Z"
45,0.062270507,-0.982644,-0.25049806,306,"2023-02-05T05:06:51.312Z"
51,0.060791016,-0.9823169,-0.25317627,306,"2023-02-05T05:07:51.874Z"
46,0.059990235,-0.9815357,-0.255,306,"2023-02-05T05:08:52.436Z"
43,0.059628908,-0.9815698,-0.25734863,306,"2023-02-05T05:09:52.998Z"
72,0.038032226,0.7740039,0.5838721,306,"2023-02-05T05:10:53.561Z"
75,-0.71272707,0.7040771,0.0036914062,306,"2023-02-05T05:11:54.123Z"
72,-0.088723145,0.98288083,0.09894531,306,"2023-02-05T05:12:54.685Z"
69,0.22848144,0.9744238,0.044313964,306,"2023-02-05T05:13:55.247Z"
73,-0.026374511,0.9962354,0.017094726,306,"2023-02-05T05:14:55.810Z"
65,-0.014633789,0.9930469,-0.12970704,306,"2023-02-05T05:15:56.372Z"
70,-0.18444824,0.88953125,0.39334962,306,"2023-02-05T05:16:56.934Z"
68,-0.72754395,-0.018879395,0.65473634,306,"2023-02-05T05:17:57.496Z"
45,-0.6883618,-0.014956054,0.6964697,306,"2023-02-05T05:18:58.059Z"
42,-0.68626463,-0.009404297,0.6999707,306,"2023-02-05T05:19:58.621Z"
42,-0.6877051,-0.013098145,0.69843996,306,"2023-02-05T05:20:59.183Z"
37,-0.6870972,-0.00904541,0.70028806,306,"2023-02-05T05:21:59.745Z"
45,-0.6950879,-0.01486084,0.6925293,306,"2023-02-05T05:23:00.308Z"
42,-0.6890112,-0.00852539,0.69921386,306,"2023-02-05T05:24:00.870Z"
46,-0.68860596,-0.008869629,0.69955325,306,"2023-02-05T05:25:01.432Z"
40,-0.6864355,-0.008666992,0.7021899,306,"2023-02-05T05:26:01.994Z"
41,-0.69099367,-0.0067333984,0.69683105,306,"2023-02-05T05:27:02.557Z"
65,-0.6434302,-0.75302005,0.1166626,306,"2023-02-05T05:28:03.119Z"
38,-0.6361841,-0.75940675,0.121123046,306,"2023-02-05T05:29:03.681Z"
44,-0.72643554,-0.372417,0.54562014,306,"2023-02-05T05:30:04.228Z"
44,-0.02845703,-0.9630615,-0.31784913,306,"2023-02-05T05:31:04.791Z"
43,-0.028693847,-0.9621143,-0.32086182,306,"2023-02-05T05:32:05.353Z"
40,-0.028898926,-0.9613037,-0.32239747,306,"2023-02-05T05:33:05.915Z"
40,-0.02838379,-0.96103024,-0.32602784,306,"2023-02-05T05:34:06.477Z"
39,-0.028518066,-0.9609644,-0.32648438,306,"2023-02-05T05:35:07.040Z"
37,-0.028154297,-0.9601196,-0.32689697,306,"2023-02-05T05:36:07.602Z"
43,-0.027832031,-0.96019775,-0.3278003,306,"2023-02-05T05:37:08.164Z"
44,-0.02776123,-0.95994383,-0.32852784,306,"2023-02-05T05:38:08.726Z"
41,0.011977539,-0.74130857,-0.69207764,306,"2023-02-05T05:39:09.289Z"
42,0.010424805,-0.74428713,-0.6885425,306,"2023-02-05T05:40:09.851Z"
41,0.008566895,-0.74659425,-0.68563235,306,"2023-02-05T05:41:10.413Z"
42,0.009191895,-0.7476758,-0.6850879,306,"2023-02-05T05:42:10.975Z"
42,0.009145508,-0.7463208,-0.6857153,306,"2023-02-05T05:43:11.537Z"
39,0.008310547,-0.74809813,-0.685188,306,"2023-02-05T05:44:12.100Z"
40,0.008381348,-0.7475464,-0.684646,306,"2023-02-05T05:45:12.662Z"
43,0.007963867,-0.7487158,-0.6840527,306,"2023-02-05T05:46:13.224Z"
41,0.011843261,-0.7622705,-0.6697778,306,"2023-02-05T05:47:13.786Z"
44,0.011845703,-0.76220214,-0.66906005,306,"2023-02-05T05:48:14.349Z"
42,0.012172852,-0.7616894,-0.66981936,306,"2023-02-05T05:49:14.911Z"
45,0.012070312,-0.76188964,-0.6695508,306,"2023-02-05T05:50:15.473Z"
42,0.012214355,-0.7621875,-0.66907716,306,"2023-02-05T05:51:16.035Z"
39,0.011569824,-0.76075685,-0.6705688,306,"2023-02-05T05:52:16.598Z"
41,0.012185059,-0.7616626,-0.66993654,306,"2023-02-05T05:53:17.160Z"
43,0.012277832,-0.761394,-0.66986084,306,"2023-02-05T05:54:17.722Z"
45,0.012502441,-0.7616626,-0.6696973,306,"2023-02-05T05:55:18.284Z"
47,0.011235352,-0.7637695,-0.6682373,306,"2023-02-05T05:56:18.846Z"
48,0.011831054,-0.7640454,-0.66772705,306,"2023-02-05T05:57:19.409Z"
45,0.011591797,-0.76372313,-0.6674048,306,"2023-02-05T05:58:19.971Z"
50,0.010944825,-0.7651782,-0.6661792,306,"2023-02-05T05:59:20.533Z"
39,0.007363281,-1.010376,-0.09310303,306,"2023-02-05T06:00:21.095Z"
43,0.014160156,-1.01042,-0.09358642,306,"2023-02-05T06:01:21.658Z"
48,0.014436035,-1.0104053,-0.09604004,306,"2023-02-05T06:02:22.220Z"
45,0.014470215,-1.0101342,-0.098422855,306,"2023-02-05T06:03:22.782Z"
44,0.0145019535,-1.0094067,-0.10102783,306,"2023-02-05T06:04:23.357Z"
47,0.015129395,-1.0096484,-0.10203125,306,"2023-02-05T06:05:23.919Z"
45,0.0145751955,-1.0099487,-0.10405517,306,"2023-02-05T06:06:24.481Z"
65,0.02025879,-0.9021313,-0.46775392,306,"2023-02-05T06:07:25.043Z"
42,0.01987549,-0.90133303,-0.46888915,306,"2023-02-05T06:08:25.606Z"
50,0.01828125,-0.9717163,-0.29448974,306,"2023-02-05T06:09:26.168Z"
46,0.014609375,-0.9822339,-0.2581372,306,"2023-02-05T06:10:26.729Z"
43,0.06737549,-0.5719946,-0.83581054,306,"2023-02-05T06:11:27.292Z"
46,0.06865478,-0.5726367,-0.8348926,306,"2023-02-05T06:12:27.855Z"
48,0.07066162,-0.57556885,-0.83284426,306,"2023-02-05T06:13:28.417Z"
46,0.071469724,-0.57484376,-0.83338135,306,"2023-02-05T06:14:28.979Z"
43,0.07218994,-0.57552737,-0.8326514,306,"2023-02-05T06:15:29.542Z"
45,0.07260742,-0.5760596,-0.8318091,306,"2023-02-05T06:16:30.104Z"
67,-0.010634766,-0.17359619,-0.9953125,306,"2023-02-05T06:17:30.666Z"
